ACCELEROMETER X (m/s²),ACCELEROMETER Y (m/s²),ACCELEROMETER Z (m/s²),LINEAR ACCELERATION X (m/s²),LINEAR ACCELERATION Y (m/s²),LINEAR ACCELERATION Z (m/s²),GYROSCOPE X (rad/s),GYROSCOPE Y (rad/s),GYROSCOPE Z (rad/s),Time since start in ms ,YYYY-MO-DD HH-MI-SS_SSS
0.61,-0.01,10.1,0.27,-0.33,0.31,0.02,0.01,0.01,6,2019-04-03 15:48:54:294
0.57,0.78,9.75,0.01,0.32,-0.14,0.01,0.0,0.0,11,2019-04-03 15:48:54:299
0.57,0.78,9.75,0.01,0.32,-0.14,0.01,0.0,0.0,16,2019-04-03 15:48:54:304
0.57,0.78,9.75,0.01,0.32,-0.14,0.01,0.0,0.0,21,2019-04-03 15:48:54:309
0.57,0.78,9.75,0.01,0.32,-0.14,0.01,0.0,0.0,25,2019-04-03 15:48:54:313
0.7,0.16,10.04,0.14,-0.27,0.14,-0.02,0.0,0.0,31,2019-04-03 15:48:54:319
0.7,0.16,10.04,0.14,-0.27,0.14,-0.02,0.0,0.0,36,2019-04-03 15:48:54:324
0.7,0.16,10.04,0.14,-0.27,0.14,-0.02,0.0,0.0,41,2019-04-03 15:48:54:329
0.7,0.16,10.04,0.14,-0.27,0.14,-0.02,0.0,0.0,46,2019-04-03 15:48:54:334
0.53,0.54,9.79,-0.02,0.09,-0.09,0.02,0.0,0.0,51,2019-04-03 15:48:54:339
0.53,0.54,9.79,-0.02,0.09,-0.09,0.02,0.0,0.0,56,2019-04-03 15:48:54:344
0.53,0.54,9.79,-0.02,0.09,-0.09,0.02,0.0,0.0,61,2019-04-03 15:48:54:349
0.53,0.54,9.79,-0.02,0.09,-0.09,0.02,0.0,0.0,66,2019-04-03 15:48:54:354
0.51,0.48,9.81,-0.04,0.03,-0.07,0.0,0.0,0.0,71,2019-04-03 15:48:54:359
0.51,0.48,9.81,-0.04,0.03,-0.07,0.0,0.0,0.0,76,2019-04-03 15:48:54:364
0.51,0.48,9.81,-0.04,0.03,-0.07,0.0,0.0,0.0,82,2019-04-03 15:48:54:370
0.51,0.48,9.81,-0.04,0.03,-0.07,0.0,0.0,0.0,85,2019-04-03 15:48:54:373
0.51,0.48,9.81,-0.04,0.03,-0.07,0.0,0.0,0.0,91,2019-04-03 15:48:54:379
0.47,0.24,9.88,-0.04,0.03,-0.07,0.0,0.0,0.0,96,2019-04-03 15:48:54:384
0.47,0.24,9.88,-0.08,-0.2,-0.01,-0.01,0.0,0.0,101,2019-04-03 15:48:54:389
0.47,0.24,9.88,-0.08,-0.2,-0.01,-0.01,0.0,0.0,106,2019-04-03 15:48:54:394
0.47,0.24,9.88,-0.08,-0.2,-0.01,-0.01,0.0,0.0,111,2019-04-03 15:48:54:399
0.47,0.54,9.81,-0.08,-0.2,-0.01,-0.01,0.0,0.0,116,2019-04-03 15:48:54:404
0.46,0.54,9.81,-0.08,0.09,-0.07,0.01,0.0,0.0,121,2019-04-03 15:48:54:409
0.46,0.54,9.81,-0.08,0.09,-0.07,0.01,0.0,0.0,126,2019-04-03 15:48:54:414
0.49,0.42,9.84,-0.08,0.09,-0.07,0.0,0.0,0.0,132,2019-04-03 15:48:54:420
0.49,0.42,9.84,-0.08,0.09,-0.07,0.0,0.0,0.0,136,2019-04-03 15:48:54:424
0.49,0.42,9.84,-0.08,0.09,-0.07,0.0,0.0,0.0,141,2019-04-03 15:48:54:429
0.48,0.38,9.9,-0.08,0.09,-0.07,0.0,0.0,0.0,146,2019-04-03 15:48:54:434
0.48,0.38,9.9,-0.06,-0.06,0.02,0.0,0.0,0.0,151,2019-04-03 15:48:54:439
0.48,0.38,9.9,-0.06,-0.06,0.02,0.0,0.0,0.0,156,2019-04-03 15:48:54:444
0.48,0.38,9.9,-0.06,-0.06,0.02,0.0,0.0,0.0,161,2019-04-03 15:48:54:449
0.48,0.38,9.9,-0.06,-0.06,0.02,0.0,0.0,0.0,166,2019-04-03 15:48:54:454
0.48,0.38,9.9,-0.06,-0.06,0.02,0.0,0.0,0.0,171,2019-04-03 15:48:54:459
0.48,0.38,9.9,-0.06,-0.06,0.02,0.0,0.0,0.0,175,2019-04-03 15:48:54:463
0.51,0.54,9.81,-0.04,0.06,-0.05,0.0,0.0,0.0,181,2019-04-03 15:48:54:469
0.51,0.54,9.81,-0.04,0.06,-0.05,0.0,0.0,0.0,186,2019-04-03 15:48:54:474
0.51,0.54,9.81,-0.04,0.06,-0.05,0.0,0.0,0.0,191,2019-04-03 15:48:54:479
0.51,0.54,9.81,-0.04,0.06,-0.05,0.0,0.0,0.0,196,2019-04-03 15:48:54:484
0.58,0.39,9.9,0.0,-0.07,0.01,0.0,0.0,0.0,200,2019-04-03 15:48:54:488
0.58,0.39,9.9,0.0,-0.07,0.01,0.0,0.0,0.0,206,2019-04-03 15:48:54:494
0.61,0.45,9.89,0.02,-0.01,0.0,0.0,0.0,0.0,211,2019-04-03 15:48:54:499
0.61,0.45,9.89,0.02,-0.01,0.0,0.0,0.0,0.0,217,2019-04-03 15:48:54:505
0.61,0.45,9.89,0.02,-0.01,0.0,0.0,0.0,0.0,221,2019-04-03 15:48:54:509
0.61,0.45,9.89,0.02,-0.01,0.0,0.0,0.0,0.0,226,2019-04-03 15:48:54:514
0.56,0.55,9.82,-0.01,0.06,-0.05,0.0,0.0,0.0,231,2019-04-03 15:48:54:519
0.56,0.55,9.82,-0.01,0.06,-0.05,0.0,0.0,0.0,236,2019-04-03 15:48:54:524
0.56,0.55,9.82,-0.01,0.06,-0.05,0.0,0.0,0.0,242,2019-04-03 15:48:54:530
0.56,0.55,9.82,-0.01,0.06,-0.05,0.0,0.0,0.0,246,2019-04-03 15:48:54:534
0.59,0.46,9.9,0.01,-0.01,0.02,0.0,0.0,0.0,251,2019-04-03 15:48:54:539
0.59,0.46,9.9,0.01,-0.01,0.02,0.0,0.0,0.0,256,2019-04-03 15:48:54:544
0.59,0.46,9.9,0.01,-0.01,0.02,0.0,0.0,0.0,262,2019-04-03 15:48:54:550
0.59,0.45,9.85,0.01,-0.01,0.02,0.0,0.0,0.0,266,2019-04-03 15:48:54:554
0.59,0.45,9.85,0.02,-0.03,-0.01,0.0,0.0,0.0,271,2019-04-03 15:48:54:559
0.59,0.45,9.85,0.02,-0.03,-0.01,0.0,0.0,0.0,276,2019-04-03 15:48:54:564
0.59,0.45,9.85,0.02,-0.03,-0.01,0.0,0.0,0.0,281,2019-04-03 15:48:54:569
0.59,0.51,9.86,0.02,0.02,0.0,0.0,0.0,0.0,286,2019-04-03 15:48:54:574
0.59,0.51,9.86,0.02,0.02,0.0,0.0,0.0,0.0,291,2019-04-03 15:48:54:579
0.59,0.51,9.86,0.02,0.02,0.0,0.0,0.0,0.0,296,2019-04-03 15:48:54:584
0.62,0.51,9.85,0.05,0.03,-0.02,0.0,0.0,0.0,301,2019-04-03 15:48:54:589
0.62,0.51,9.85,0.05,0.03,-0.02,0.0,0.0,0.0,306,2019-04-03 15:48:54:594
0.62,0.51,9.85,0.05,0.03,-0.02,0.0,0.0,0.0,312,2019-04-03 15:48:54:600
0.62,0.51,9.85,0.05,0.03,-0.02,0.0,0.0,0.0,316,2019-04-03 15:48:54:604
0.62,0.51,9.85,0.05,0.03,-0.02,0.0,0.0,0.0,321,2019-04-03 15:48:54:609
0.62,0.51,9.85,0.05,0.03,-0.02,0.0,0.0,0.0,325,2019-04-03 15:48:54:613
0.58,0.53,9.87,0.02,0.04,0.0,0.0,0.0,0.0,331,2019-04-03 15:48:54:619
0.58,0.53,9.87,0.02,0.04,0.0,0.0,0.0,0.0,336,2019-04-03 15:48:54:624
0.58,0.53,9.87,0.02,0.04,0.0,0.0,0.0,0.0,341,2019-04-03 15:48:54:629
0.58,0.53,9.87,0.02,0.04,0.0,0.0,0.0,0.0,346,2019-04-03 15:48:54:634
0.52,0.51,9.86,-0.03,0.02,0.0,0.0,0.0,0.0,351,2019-04-03 15:48:54:639
0.52,0.51,9.86,-0.03,0.02,0.0,0.0,0.0,0.0,355,2019-04-03 15:48:54:643
0.52,0.51,9.86,-0.03,0.02,0.0,0.0,0.0,0.0,362,2019-04-03 15:48:54:650
0.55,0.48,9.83,-0.03,0.02,0.0,0.0,0.0,0.0,366,2019-04-03 15:48:54:654
0.55,0.48,9.83,0.0,0.0,-0.03,0.0,0.0,0.0,372,2019-04-03 15:48:54:660
0.55,0.48,9.83,0.0,0.0,-0.03,0.0,0.0,0.0,376,2019-04-03 15:48:54:664
0.6,0.45,9.84,0.04,-0.02,-0.01,0.0,0.0,0.0,381,2019-04-03 15:48:54:669
0.6,0.45,9.84,0.04,-0.02,-0.01,0.0,0.0,0.0,387,2019-04-03 15:48:54:675
0.6,0.45,9.84,0.04,-0.02,-0.01,0.0,0.0,0.0,391,2019-04-03 15:48:54:679
0.6,0.45,9.84,0.04,-0.02,-0.01,0.0,0.0,0.0,396,2019-04-03 15:48:54:684
0.6,0.45,9.84,0.04,-0.02,-0.01,0.0,0.0,0.0,402,2019-04-03 15:48:54:690
0.6,0.45,9.84,0.04,-0.02,-0.01,0.0,0.0,0.0,406,2019-04-03 15:48:54:694
0.61,0.49,9.76,0.05,0.0,-0.08,0.0,0.0,0.0,411,2019-04-03 15:48:54:699
0.61,0.49,9.76,0.05,0.0,-0.08,0.0,0.0,0.0,416,2019-04-03 15:48:54:704
0.61,0.49,9.76,0.05,0.0,-0.08,0.0,0.0,0.0,421,2019-04-03 15:48:54:709
0.61,0.49,9.76,0.05,0.0,-0.08,0.0,0.0,0.0,425,2019-04-03 15:48:54:713
0.61,0.49,9.76,0.05,0.0,-0.08,0.0,0.0,0.0,431,2019-04-03 15:48:54:719
0.61,0.49,9.76,0.05,0.0,-0.08,0.0,0.0,0.0,435,2019-04-03 15:48:54:723
0.61,0.49,9.76,0.05,0.0,-0.08,0.0,0.0,0.0,441,2019-04-03 15:48:54:729
0.61,0.49,9.76,0.05,0.0,-0.08,0.0,0.0,0.0,446,2019-04-03 15:48:54:734
0.55,0.46,9.95,0.0,0.02,0.09,0.01,0.0,0.0,450,2019-04-03 15:48:54:738
0.55,0.46,9.95,0.0,0.02,0.09,0.01,0.0,0.0,455,2019-04-03 15:48:54:743
0.55,0.46,9.95,0.0,0.02,0.09,0.0,0.0,-0.01,461,2019-04-03 15:48:54:749
0.55,0.46,9.95,0.0,0.02,0.09,0.0,0.0,-0.01,466,2019-04-03 15:48:54:754
0.55,0.46,9.95,0.0,0.02,0.09,0.0,0.0,-0.01,471,2019-04-03 15:48:54:759
0.44,0.59,9.96,0.0,0.02,0.09,0.0,0.01,0.0,476,2019-04-03 15:48:54:764
0.44,0.59,9.96,-0.13,0.11,0.1,0.0,0.01,0.0,482,2019-04-03 15:48:54:770
0.44,0.59,9.96,-0.13,0.11,0.1,0.0,0.01,0.0,486,2019-04-03 15:48:54:774
0.44,0.59,9.96,-0.13,0.11,0.1,0.0,0.01,0.0,491,2019-04-03 15:48:54:779
0.44,0.59,9.96,-0.13,0.11,0.1,0.0,0.01,0.0,496,2019-04-03 15:48:54:784
0.44,0.59,9.96,-0.13,0.11,0.1,0.0,0.01,0.0,502,2019-04-03 15:48:54:790
0.46,1.11,9.81,-0.1,0.59,-0.04,0.0,0.01,-0.01,512,2019-04-03 15:48:54:800
0.46,1.11,9.81,-0.1,0.59,-0.04,0.0,0.01,-0.01,513,2019-04-03 15:48:54:801
0.46,1.11,9.81,-0.1,0.59,-0.04,0.0,0.01,-0.01,516,2019-04-03 15:48:54:804
0.46,1.11,9.81,-0.1,0.59,-0.04,0.0,0.01,-0.01,521,2019-04-03 15:48:54:809
0.46,1.11,9.81,-0.1,0.59,-0.04,0.0,0.01,-0.01,526,2019-04-03 15:48:54:814
0.2,0.51,10.07,-0.35,-0.02,0.19,-0.04,0.0,-0.01,531,2019-04-03 15:48:54:819
0.2,0.51,10.07,-0.35,-0.02,0.19,-0.04,0.0,-0.01,536,2019-04-03 15:48:54:824
0.2,0.51,10.07,-0.35,-0.02,0.19,-0.04,0.0,-0.01,541,2019-04-03 15:48:54:829
0.2,0.51,10.07,-0.35,-0.02,0.19,-0.04,0.0,-0.01,546,2019-04-03 15:48:54:834
0.2,0.51,10.07,-0.35,-0.02,0.19,-0.04,0.0,-0.01,550,2019-04-03 15:48:54:838
0.76,0.71,9.72,0.2,0.14,-0.16,0.0,-0.02,-0.01,556,2019-04-03 15:48:54:844
0.76,0.71,9.72,0.2,0.14,-0.16,0.0,-0.02,-0.01,562,2019-04-03 15:48:54:850
0.76,0.71,9.72,0.2,0.14,-0.16,0.0,-0.02,-0.01,566,2019-04-03 15:48:54:854
0.91,0.66,9.93,0.34,0.1,0.04,0.0,0.0,0.0,571,2019-04-03 15:48:54:859
0.91,0.66,9.93,0.34,0.1,0.04,0.0,0.0,0.0,576,2019-04-03 15:48:54:864
0.52,0.51,9.82,0.34,0.1,0.04,0.0,0.02,0.01,581,2019-04-03 15:48:54:869
0.52,0.51,9.82,0.34,0.1,0.04,0.0,0.02,0.01,586,2019-04-03 15:48:54:874
0.52,0.51,9.82,0.34,0.1,0.04,0.0,0.02,0.01,591,2019-04-03 15:48:54:879
0.52,0.51,9.82,0.34,0.1,0.04,0.0,0.02,0.01,596,2019-04-03 15:48:54:884
0.33,0.85,9.58,-0.2,0.25,-0.28,0.01,0.01,0.01,600,2019-04-03 15:48:54:888
0.33,0.85,9.58,-0.2,0.25,-0.28,0.01,0.01,0.01,606,2019-04-03 15:48:54:894
0.33,0.85,9.58,-0.2,0.25,-0.28,0.01,0.01,0.01,612,2019-04-03 15:48:54:900
0.33,0.85,9.58,-0.2,0.25,-0.28,0.01,0.01,0.01,616,2019-04-03 15:48:54:904
0.44,0.3,9.85,-0.08,-0.3,-0.02,0.0,-0.01,0.01,620,2019-04-03 15:48:54:908
0.44,0.3,9.85,-0.08,-0.3,-0.02,0.0,-0.01,0.01,625,2019-04-03 15:48:54:913
0.44,0.3,9.85,-0.08,-0.3,-0.02,0.0,-0.01,0.01,631,2019-04-03 15:48:54:919
0.44,0.3,9.85,-0.08,-0.3,-0.02,0.0,-0.01,0.01,636,2019-04-03 15:48:54:924
0.44,0.3,9.85,-0.08,-0.3,-0.02,0.0,-0.01,0.01,642,2019-04-03 15:48:54:930
0.44,0.3,9.85,-0.08,-0.3,-0.02,0.0,-0.01,0.01,646,2019-04-03 15:48:54:934
0.54,0.11,9.94,0.0,-0.48,0.06,0.0,-0.02,0.01,651,2019-04-03 15:48:54:939
0.54,0.11,9.94,0.0,-0.48,0.06,0.0,-0.02,0.01,656,2019-04-03 15:48:54:944
0.54,0.11,9.94,0.0,-0.48,0.06,0.0,-0.02,0.01,662,2019-04-03 15:48:54:950
0.54,0.11,9.94,0.0,-0.48,0.06,0.0,-0.02,0.01,666,2019-04-03 15:48:54:954
0.83,0.15,9.92,0.29,-0.39,0.04,0.01,-0.02,0.01,671,2019-04-03 15:48:54:959
0.83,0.15,9.92,0.29,-0.39,0.04,0.01,-0.02,0.01,676,2019-04-03 15:48:54:964
0.66,-0.12,10.07,0.11,-0.6,0.18,0.0,0.0,0.03,681,2019-04-03 15:48:54:969
0.66,-0.12,10.07,0.11,-0.6,0.18,0.0,0.0,0.03,686,2019-04-03 15:48:54:974
0.66,-0.12,10.07,0.11,-0.6,0.18,0.0,0.0,0.03,691,2019-04-03 15:48:54:979
0.66,-0.12,10.07,0.11,-0.6,0.18,0.0,0.0,0.03,696,2019-04-03 15:48:54:984
0.72,0.08,9.86,0.15,-0.31,-0.03,0.02,0.0,0.04,701,2019-04-03 15:48:54:989
0.72,0.08,9.86,0.15,-0.31,-0.03,0.02,0.0,0.04,706,2019-04-03 15:48:54:994
0.72,0.08,9.86,0.15,-0.31,-0.03,0.02,0.0,0.04,711,2019-04-03 15:48:54:999
0.72,0.08,9.86,0.15,-0.31,-0.03,0.02,0.0,0.04,715,2019-04-03 15:48:55:003
0.57,0.01,10.01,0.0,-0.3,0.12,0.0,0.0,0.05,721,2019-04-03 15:48:55:009
0.57,0.01,10.01,0.0,-0.3,0.12,0.0,0.0,0.05,726,2019-04-03 15:48:55:014
0.57,0.01,10.01,0.0,-0.3,0.12,0.0,0.0,0.05,731,2019-04-03 15:48:55:019
0.57,0.01,10.01,0.0,-0.3,0.12,0.0,0.0,0.05,736,2019-04-03 15:48:55:024
0.57,0.01,10.01,0.0,-0.3,0.12,0.0,0.0,0.05,741,2019-04-03 15:48:55:029
0.57,0.01,10.01,0.0,-0.3,0.12,0.0,0.0,0.05,746,2019-04-03 15:48:55:034
1.06,0.35,9.94,0.46,0.07,0.06,0.0,0.0,0.05,752,2019-04-03 15:48:55:040
1.06,0.35,9.94,0.46,0.07,0.06,0.0,0.0,0.05,756,2019-04-03 15:48:55:044
1.06,0.35,9.94,0.46,0.07,0.06,0.0,0.0,0.05,761,2019-04-03 15:48:55:049
0.87,0.27,9.65,0.46,0.07,0.06,0.0,0.02,0.06,766,2019-04-03 15:48:55:054
0.87,0.27,9.65,0.24,0.0,-0.19,0.0,0.02,0.06,771,2019-04-03 15:48:55:059
0.87,0.27,9.65,0.24,0.0,-0.19,0.0,0.02,0.06,776,2019-04-03 15:48:55:064
0.74,0.05,10.24,-0.25,-0.15,-0.37,0.0,0.03,0.08,781,2019-04-03 15:48:55:069
0.74,0.05,10.24,-0.25,-0.15,-0.37,0.0,0.03,0.08,786,2019-04-03 15:48:55:074
0.74,0.05,10.24,-0.25,-0.15,-0.37,0.0,0.03,0.08,791,2019-04-03 15:48:55:079
0.74,0.05,10.24,-0.25,-0.15,-0.37,0.0,0.03,0.08,796,2019-04-03 15:48:55:084
0.33,0.19,10.43,-0.32,0.04,0.49,0.0,0.0,0.08,801,2019-04-03 15:48:55:089
0.33,0.19,10.43,-0.32,0.04,0.49,0.0,0.0,0.08,806,2019-04-03 15:48:55:094
0.33,0.19,10.43,-0.32,0.04,0.49,0.0,0.0,0.08,812,2019-04-03 15:48:55:100
0.33,0.19,10.43,-0.32,0.04,0.49,0.0,0.0,0.08,816,2019-04-03 15:48:55:104
0.72,0.42,10.13,0.06,0.27,0.19,0.01,0.0,0.07,820,2019-04-03 15:48:55:108
0.72,0.42,10.13,0.06,0.27,0.19,0.01,0.0,0.07,826,2019-04-03 15:48:55:114
0.72,0.42,10.13,0.06,0.27,0.19,0.01,0.0,0.07,831,2019-04-03 15:48:55:119
0.72,0.42,10.13,0.06,0.27,0.19,0.01,0.0,0.07,836,2019-04-03 15:48:55:124
0.52,0.82,9.83,-0.12,0.61,-0.09,0.02,0.0,0.08,841,2019-04-03 15:48:55:129
0.52,0.82,9.83,-0.12,0.61,-0.09,0.02,0.0,0.08,846,2019-04-03 15:48:55:134
0.52,0.82,9.83,-0.12,0.61,-0.09,0.02,0.0,0.08,851,2019-04-03 15:48:55:139
0.52,0.82,9.83,-0.12,0.61,-0.09,0.02,0.0,0.08,856,2019-04-03 15:48:55:144
0.45,0.88,10.04,-0.18,0.59,0.11,0.01,0.0,0.1,862,2019-04-03 15:48:55:150
0.45,0.88,10.04,-0.18,0.59,0.11,0.01,0.0,0.1,865,2019-04-03 15:48:55:153
0.45,0.88,10.04,-0.18,0.59,0.11,0.01,0.0,0.1,871,2019-04-03 15:48:55:159
0.45,0.88,10.04,-0.18,0.59,0.11,0.01,0.0,0.1,876,2019-04-03 15:48:55:164
1.38,0.89,8.91,0.69,0.52,-0.96,0.0,0.0,0.13,882,2019-04-03 15:48:55:170
1.38,0.89,8.91,0.69,0.52,-0.96,0.0,0.0,0.13,886,2019-04-03 15:48:55:174
1.38,0.89,8.91,0.69,0.52,-0.96,0.0,0.0,0.13,891,2019-04-03 15:48:55:179
1.38,0.89,8.91,0.69,0.52,-0.96,0.0,0.0,0.13,895,2019-04-03 15:48:55:183
-0.96,2.0,8.94,-1.66,1.35,-0.76,0.06,0.04,0.21,901,2019-04-03 15:48:55:189
-0.96,2.0,8.94,-1.66,1.35,-0.76,0.06,0.04,0.21,906,2019-04-03 15:48:55:194
-0.96,2.0,8.94,-1.66,1.35,-0.76,0.06,0.04,0.21,912,2019-04-03 15:48:55:200
-0.96,2.0,8.94,-1.66,1.35,-0.76,0.06,0.04,0.21,916,2019-04-03 15:48:55:204
-0.96,2.0,8.94,-1.66,1.35,-0.76,0.06,0.04,0.21,921,2019-04-03 15:48:55:209
-0.96,2.0,8.94,-1.66,1.35,-0.76,0.06,0.04,0.21,926,2019-04-03 15:48:55:214
0.8,-0.12,9.28,0.08,-0.74,-0.47,0.02,-0.05,0.2,931,2019-04-03 15:48:55:219
0.8,-0.12,9.28,0.08,-0.74,-0.47,0.02,-0.05,0.2,936,2019-04-03 15:48:55:224
0.8,-0.12,9.28,0.08,-0.74,-0.47,0.02,-0.05,0.2,941,2019-04-03 15:48:55:229
0.8,-0.12,9.28,0.08,-0.74,-0.47,0.02,-0.05,0.2,945,2019-04-03 15:48:55:233
1.16,1.31,10.67,0.46,0.56,0.98,0.02,0.0,0.18,951,2019-04-03 15:48:55:239
1.16,1.31,10.67,0.46,0.56,0.98,0.02,0.0,0.18,956,2019-04-03 15:48:55:244
1.16,1.31,10.67,0.46,0.56,0.98,0.03,-0.04,0.18,961,2019-04-03 15:48:55:249
1.16,1.31,10.67,0.46,0.56,0.98,0.03,-0.04,0.18,966,2019-04-03 15:48:55:254
1.16,1.31,10.67,0.46,0.56,0.98,0.03,-0.04,0.18,971,2019-04-03 15:48:55:259
1.16,1.31,10.67,0.46,0.56,0.98,0.03,-0.04,0.18,976,2019-04-03 15:48:55:264
1.16,1.31,10.67,0.46,0.56,0.98,0.03,-0.04,0.18,981,2019-04-03 15:48:55:269
1.16,1.31,10.67,0.46,0.56,0.98,0.03,-0.04,0.18,986,2019-04-03 15:48:55:274
0.61,0.59,9.99,0.07,-0.33,0.19,0.0,0.02,0.17,991,2019-04-03 15:48:55:279
0.61,0.59,9.99,0.07,-0.33,0.19,0.0,0.02,0.17,996,2019-04-03 15:48:55:284
1.02,0.78,10.56,0.07,-0.33,0.19,0.03,0.03,0.19,1001,2019-04-03 15:48:55:289
1.02,0.78,10.56,0.07,-0.33,0.19,0.03,0.03,0.19,1006,2019-04-03 15:48:55:294
1.02,0.78,10.56,0.07,-0.33,0.19,0.03,0.03,0.19,1011,2019-04-03 15:48:55:299
1.02,0.78,10.56,0.07,-0.33,0.19,0.03,0.03,0.19,1016,2019-04-03 15:48:55:304
0.28,1.94,9.65,-0.26,0.82,-0.1,0.05,0.01,0.19,1021,2019-04-03 15:48:55:309
0.28,1.94,9.65,-0.26,0.82,-0.1,0.05,0.01,0.19,1026,2019-04-03 15:48:55:314
0.28,1.94,9.65,-0.26,0.82,-0.1,0.05,0.01,0.19,1031,2019-04-03 15:48:55:319
0.28,1.94,9.65,-0.26,0.82,-0.1,0.05,0.01,0.19,1036,2019-04-03 15:48:55:324
0.28,1.94,9.65,-0.26,0.82,-0.1,0.05,0.01,0.19,1041,2019-04-03 15:48:55:329
0.28,1.94,9.65,-0.26,0.82,-0.1,0.05,0.01,0.19,1046,2019-04-03 15:48:55:334
0.65,1.13,9.88,0.08,-0.04,0.11,0.0,0.0,0.2,1052,2019-04-03 15:48:55:340
0.65,1.13,9.88,0.08,-0.04,0.11,0.0,0.0,0.2,1056,2019-04-03 15:48:55:344
0.65,1.13,9.88,0.08,-0.04,0.11,0.0,0.0,0.2,1062,2019-04-03 15:48:55:350
0.65,1.13,9.88,0.08,-0.04,0.11,0.0,0.0,0.2,1066,2019-04-03 15:48:55:354
0.36,1.63,9.46,-0.19,0.37,-0.27,0.05,0.01,0.2,1072,2019-04-03 15:48:55:360
0.36,1.63,9.46,-0.19,0.37,-0.27,0.05,0.01,0.2,1076,2019-04-03 15:48:55:364
0.7,1.12,9.47,-0.19,0.37,-0.27,0.02,-0.01,0.2,1080,2019-04-03 15:48:55:368
0.7,1.12,9.47,-0.19,0.37,-0.27,0.02,-0.01,0.2,1086,2019-04-03 15:48:55:374
0.7,1.12,9.47,-0.19,0.37,-0.27,0.02,-0.01,0.2,1091,2019-04-03 15:48:55:379
0.7,1.12,9.47,-0.19,0.37,-0.27,0.02,-0.01,0.2,1096,2019-04-03 15:48:55:384
0.71,1.06,9.97,0.2,-0.05,0.06,0.02,0.0,0.23,1101,2019-04-03 15:48:55:389
0.71,1.06,9.97,0.2,-0.05,0.06,0.02,0.0,0.23,1106,2019-04-03 15:48:55:394
0.71,1.06,9.97,0.2,-0.05,0.06,0.02,0.0,0.23,1111,2019-04-03 15:48:55:399
0.71,1.06,9.97,0.2,-0.05,0.06,0.02,0.0,0.23,1116,2019-04-03 15:48:55:404
0.62,1.09,9.7,0.11,-0.15,-0.15,0.03,0.0,0.26,1121,2019-04-03 15:48:55:409
0.62,1.09,9.7,0.11,-0.15,-0.15,0.03,0.0,0.26,1126,2019-04-03 15:48:55:414
0.62,1.09,9.7,0.11,-0.15,-0.15,0.03,0.0,0.26,1131,2019-04-03 15:48:55:419
0.62,1.09,9.7,0.11,-0.15,-0.15,0.03,0.0,0.26,1136,2019-04-03 15:48:55:424
0.65,0.9,9.93,0.14,-0.27,0.0,0.02,0.0,0.28,1141,2019-04-03 15:48:55:429
0.65,0.9,9.93,0.14,-0.27,0.0,0.02,0.0,0.28,1146,2019-04-03 15:48:55:434
0.65,0.9,9.93,0.14,-0.27,0.0,0.02,0.0,0.28,1151,2019-04-03 15:48:55:439
0.65,0.9,9.93,0.14,-0.27,0.0,0.02,0.0,0.28,1156,2019-04-03 15:48:55:444
0.87,0.87,9.96,0.26,-0.24,0.11,0.03,0.0,0.28,1160,2019-04-03 15:48:55:448
0.87,0.87,9.96,0.26,-0.24,0.11,0.03,0.0,0.28,1166,2019-04-03 15:48:55:454
0.87,0.87,9.96,0.26,-0.24,0.11,0.03,0.0,0.28,1171,2019-04-03 15:48:55:459
0.87,0.87,9.96,0.26,-0.24,0.11,0.03,0.0,0.28,1176,2019-04-03 15:48:55:464
0.59,0.86,9.95,-0.04,-0.24,0.11,0.02,0.01,0.29,1182,2019-04-03 15:48:55:470
0.59,0.86,9.95,-0.04,-0.24,0.11,0.02,0.01,0.29,1187,2019-04-03 15:48:55:475
0.59,0.86,9.95,-0.04,-0.24,0.11,0.02,0.01,0.29,1190,2019-04-03 15:48:55:478
0.59,0.86,9.95,-0.04,-0.24,0.11,0.02,0.01,0.29,1197,2019-04-03 15:48:55:485
0.59,0.86,9.95,-0.04,-0.24,0.11,0.02,0.01,0.29,1201,2019-04-03 15:48:55:489
0.4,0.66,9.8,-0.22,-0.43,-0.03,0.01,0.0,0.28,1207,2019-04-03 15:48:55:495
0.4,0.66,9.8,-0.22,-0.43,-0.03,0.01,0.0,0.28,1211,2019-04-03 15:48:55:499
0.4,0.66,9.8,-0.22,-0.43,-0.03,0.01,0.0,0.28,1216,2019-04-03 15:48:55:504
0.28,0.7,10.0,-0.24,-0.19,0.07,0.01,0.0,0.26,1220,2019-04-03 15:48:55:508
0.28,0.7,10.0,-0.24,-0.19,0.07,0.01,0.0,0.26,1226,2019-04-03 15:48:55:514
0.28,0.7,10.0,-0.24,-0.19,0.07,0.01,0.0,0.26,1231,2019-04-03 15:48:55:519
0.28,0.7,10.0,-0.24,-0.19,0.07,0.01,0.0,0.26,1236,2019-04-03 15:48:55:524
0.28,0.7,10.0,-0.24,-0.19,0.07,0.01,0.0,0.26,1242,2019-04-03 15:48:55:530
0.28,0.7,10.0,-0.24,-0.19,0.07,0.01,0.0,0.26,1246,2019-04-03 15:48:55:534
0.95,0.59,10.16,0.34,-0.34,0.32,0.01,-0.01,0.24,1251,2019-04-03 15:48:55:539
0.95,0.59,10.16,0.34,-0.34,0.32,0.01,-0.01,0.24,1256,2019-04-03 15:48:55:544
0.95,0.59,10.16,0.34,-0.34,0.32,0.01,-0.01,0.24,1262,2019-04-03 15:48:55:550
0.69,0.58,9.9,0.34,-0.34,0.32,0.01,0.01,0.23,1267,2019-04-03 15:48:55:555
0.69,0.58,9.9,0.07,-0.24,0.04,0.01,0.01,0.23,1271,2019-04-03 15:48:55:559
0.69,0.58,9.9,0.07,-0.24,0.04,0.01,0.01,0.23,1275,2019-04-03 15:48:55:563
0.42,0.47,9.78,0.07,-0.24,0.04,0.0,0.01,0.22,1282,2019-04-03 15:48:55:570
0.42,0.47,9.78,0.07,-0.24,0.04,0.0,0.01,0.22,1286,2019-04-03 15:48:55:574
0.42,0.47,9.78,0.07,-0.24,0.04,0.0,0.01,0.22,1291,2019-04-03 15:48:55:579
0.42,0.47,9.78,0.07,-0.24,0.04,0.0,0.01,0.22,1296,2019-04-03 15:48:55:584
0.5,0.61,10.06,-0.09,-0.1,0.15,0.01,0.0,0.23,1301,2019-04-03 15:48:55:589
0.5,0.61,10.06,-0.09,-0.1,0.15,0.01,0.0,0.23,1306,2019-04-03 15:48:55:594
0.5,0.61,10.06,-0.09,-0.1,0.15,0.01,0.0,0.23,1311,2019-04-03 15:48:55:599
0.92,0.65,10.2,-0.09,-0.1,0.15,0.01,-0.01,0.24,1316,2019-04-03 15:48:55:604
0.92,0.65,10.2,0.32,-0.01,0.26,0.01,-0.01,0.24,1321,2019-04-03 15:48:55:609
0.92,0.65,10.2,0.32,-0.01,0.26,0.01,-0.01,0.24,1325,2019-04-03 15:48:55:613
0.92,0.65,10.2,0.32,-0.01,0.26,0.01,-0.01,0.24,1331,2019-04-03 15:48:55:619
0.92,0.49,10.12,0.32,-0.01,0.26,0.01,-0.01,0.24,1336,2019-04-03 15:48:55:624
0.7,0.49,10.12,0.12,-0.13,0.17,0.0,0.02,0.26,1341,2019-04-03 15:48:55:629
0.7,0.49,10.12,0.12,-0.13,0.17,0.0,0.02,0.26,1347,2019-04-03 15:48:55:635
0.7,0.49,10.12,0.12,-0.13,0.17,0.0,0.02,0.26,1352,2019-04-03 15:48:55:640
0.7,0.49,10.12,0.12,-0.13,0.17,0.0,0.02,0.26,1356,2019-04-03 15:48:55:644
0.7,0.49,10.12,0.12,-0.13,0.17,0.0,0.02,0.26,1361,2019-04-03 15:48:55:649
0.7,0.49,10.12,0.12,-0.13,0.17,0.0,0.02,0.26,1366,2019-04-03 15:48:55:654
0.58,0.9,9.81,0.01,0.28,-0.13,0.0,0.02,0.27,1371,2019-04-03 15:48:55:659
0.58,0.9,9.81,0.01,0.28,-0.13,0.0,0.02,0.27,1376,2019-04-03 15:48:55:664
0.28,0.67,9.53,0.01,0.28,-0.13,0.01,0.02,0.27,1381,2019-04-03 15:48:55:669
0.28,0.67,9.53,0.01,0.28,-0.13,0.01,0.02,0.27,1386,2019-04-03 15:48:55:674
0.28,0.67,9.53,0.01,0.28,-0.13,0.01,0.02,0.27,1391,2019-04-03 15:48:55:679
0.28,0.67,9.53,0.01,0.28,-0.13,0.01,0.02,0.27,1395,2019-04-03 15:48:55:683
0.8,0.07,9.81,0.21,-0.49,-0.11,0.01,0.0,0.26,1400,2019-04-03 15:48:55:688
0.8,0.07,9.81,0.21,-0.49,-0.11,0.01,0.0,0.26,1406,2019-04-03 15:48:55:694
0.8,0.07,9.81,0.21,-0.49,-0.11,0.01,0.0,0.26,1411,2019-04-03 15:48:55:699
0.8,0.07,9.81,0.21,-0.49,-0.11,0.01,0.0,0.26,1417,2019-04-03 15:48:55:705
0.8,0.07,9.81,0.21,-0.49,-0.11,0.01,0.0,0.26,1422,2019-04-03 15:48:55:710
0.8,0.07,9.81,0.21,-0.49,-0.11,0.01,0.0,0.26,1426,2019-04-03 15:48:55:714
1.02,0.42,9.94,0.41,-0.12,0.03,0.05,0.0,0.25,1431,2019-04-03 15:48:55:719
1.02,0.42,9.94,0.41,-0.12,0.03,0.05,0.0,0.25,1436,2019-04-03 15:48:55:724
1.02,0.42,9.94,0.25,-0.01,-0.11,0.06,0.0,0.28,1441,2019-04-03 15:48:55:729
1.02,0.42,9.94,0.25,-0.01,-0.11,0.06,0.0,0.28,1446,2019-04-03 15:48:55:734
1.02,0.42,9.94,0.25,-0.01,-0.11,0.06,0.0,0.28,1451,2019-04-03 15:48:55:739
0.27,0.02,9.9,-0.31,-0.43,0.0,0.03,0.0,0.28,1464,2019-04-03 15:48:55:752
0.27,0.02,9.9,-0.31,-0.43,0.0,0.03,0.0,0.28,1467,2019-04-03 15:48:55:755
0.27,0.02,9.9,-0.31,-0.43,0.0,0.03,0.0,0.28,1468,2019-04-03 15:48:55:756
0.3,0.47,9.56,-0.31,-0.43,0.0,0.03,0.0,0.28,1476,2019-04-03 15:48:55:764
0.3,0.47,9.56,-0.31,-0.43,0.0,0.03,0.0,0.28,1480,2019-04-03 15:48:55:768
0.3,0.47,9.56,-0.31,-0.43,0.0,0.03,0.0,0.28,1481,2019-04-03 15:48:55:769
0.3,0.47,9.56,-0.25,0.01,-0.3,0.04,0.02,0.29,1486,2019-04-03 15:48:55:774
0.3,0.47,9.56,-0.25,0.01,-0.3,0.04,0.02,0.29,1491,2019-04-03 15:48:55:779
0.3,0.47,9.56,-0.25,0.01,-0.3,0.04,0.02,0.29,1496,2019-04-03 15:48:55:784
-0.14,0.59,10.04,-0.66,0.12,0.18,0.04,0.01,0.28,1502,2019-04-03 15:48:55:790
-0.14,0.59,10.04,-0.66,0.12,0.18,0.04,0.01,0.28,1506,2019-04-03 15:48:55:794
-0.14,0.59,10.04,-0.66,0.12,0.18,0.04,0.01,0.28,1513,2019-04-03 15:48:55:801
-0.14,0.59,10.04,-0.66,0.12,0.18,0.04,0.01,0.28,1516,2019-04-03 15:48:55:804
0.2,1.33,9.67,-0.29,0.79,-0.16,0.07,-0.01,0.28,1521,2019-04-03 15:48:55:809
0.2,1.33,9.67,-0.29,0.79,-0.16,0.07,-0.01,0.28,1526,2019-04-03 15:48:55:814
0.2,1.33,9.67,-0.29,0.79,-0.16,0.07,-0.01,0.28,1531,2019-04-03 15:48:55:819
0.2,1.33,9.67,-0.29,0.79,-0.16,0.07,-0.01,0.28,1536,2019-04-03 15:48:55:824
0.2,1.33,9.67,-0.29,0.79,-0.16,0.07,-0.01,0.28,1541,2019-04-03 15:48:55:829
0.2,1.33,9.67,-0.29,0.79,-0.16,0.07,-0.01,0.28,1546,2019-04-03 15:48:55:834
0.91,1.83,9.8,0.38,1.17,-0.04,0.05,-0.02,0.31,1551,2019-04-03 15:48:55:839
0.91,1.83,9.8,0.38,1.17,-0.04,0.05,-0.02,0.31,1556,2019-04-03 15:48:55:844
0.91,1.83,9.8,0.38,1.17,-0.04,0.05,-0.02,0.31,1562,2019-04-03 15:48:55:850
1.0,1.34,10.25,0.38,1.17,-0.04,0.03,-0.01,0.36,1566,2019-04-03 15:48:55:854
1.0,1.34,10.25,0.44,0.59,0.39,0.03,-0.01,0.36,1571,2019-04-03 15:48:55:859
1.0,1.34,10.25,0.44,0.59,0.39,0.03,-0.01,0.36,1575,2019-04-03 15:48:55:863
1.0,1.34,10.25,0.44,0.59,0.39,0.03,-0.01,0.36,1581,2019-04-03 15:48:55:869
0.91,2.06,9.83,0.44,0.59,0.39,0.05,0.01,0.43,1585,2019-04-03 15:48:55:873
0.91,2.06,9.83,0.44,0.59,0.39,0.05,0.01,0.43,1592,2019-04-03 15:48:55:880
0.91,2.06,9.83,0.44,0.59,0.39,0.05,0.01,0.43,1596,2019-04-03 15:48:55:884
0.62,1.35,10.1,0.02,0.4,0.2,0.02,0.0,0.47,1601,2019-04-03 15:48:55:889
0.62,1.35,10.1,0.02,0.4,0.2,0.02,0.0,0.47,1607,2019-04-03 15:48:55:895
0.62,1.35,10.1,0.02,0.4,0.2,0.02,0.0,0.47,1612,2019-04-03 15:48:55:900
0.5,0.82,9.88,0.02,0.4,0.2,0.09,0.0,0.48,1617,2019-04-03 15:48:55:905
0.5,0.82,9.88,-0.08,-0.22,0.0,0.09,0.0,0.48,1621,2019-04-03 15:48:55:909
0.5,0.82,9.88,-0.08,-0.22,0.0,0.09,0.0,0.48,1626,2019-04-03 15:48:55:914
0.5,0.82,9.88,-0.08,-0.22,0.0,0.09,0.0,0.48,1631,2019-04-03 15:48:55:919
0.5,0.82,9.88,-0.08,-0.22,0.0,0.09,0.0,0.48,1636,2019-04-03 15:48:55:924
0.5,0.82,9.88,-0.08,-0.22,0.0,0.09,0.0,0.48,1641,2019-04-03 15:48:55:929
0.5,0.82,9.88,-0.08,-0.22,0.0,0.09,0.0,0.48,1645,2019-04-03 15:48:55:933
0.66,1.98,9.78,0.09,0.82,-0.07,0.07,0.02,0.49,1652,2019-04-03 15:48:55:940
0.66,1.98,9.78,0.09,0.82,-0.07,0.07,0.02,0.49,1656,2019-04-03 15:48:55:944
0.66,1.98,9.78,0.09,0.82,-0.07,0.07,0.02,0.49,1663,2019-04-03 15:48:55:951
0.65,1.29,10.34,0.08,0.01,0.46,0.0,0.01,0.51,1668,2019-04-03 15:48:55:956
0.65,1.29,10.34,0.08,0.01,0.46,0.0,0.01,0.51,1671,2019-04-03 15:48:55:959
0.65,1.29,10.34,0.08,0.01,0.46,0.0,0.01,0.51,1676,2019-04-03 15:48:55:964
0.65,1.29,10.34,0.08,0.01,0.46,0.0,0.01,0.51,1681,2019-04-03 15:48:55:969
0.48,1.89,9.81,-0.11,0.46,-0.1,0.08,0.02,0.51,1688,2019-04-03 15:48:55:976
0.48,1.89,9.81,-0.11,0.46,-0.1,0.08,0.02,0.51,1691,2019-04-03 15:48:55:979
0.48,1.89,9.81,-0.11,0.46,-0.1,0.08,0.02,0.51,1697,2019-04-03 15:48:55:985
1.05,2.26,9.06,0.42,0.72,-0.79,0.04,0.01,0.51,1703,2019-04-03 15:48:55:991
1.05,2.26,9.06,0.42,0.72,-0.79,0.04,0.01,0.51,1707,2019-04-03 15:48:55:995
1.05,2.26,9.06,0.42,0.72,-0.79,0.04,0.01,0.51,1713,2019-04-03 15:48:56:001
1.05,2.26,9.06,0.42,0.72,-0.79,0.04,0.01,0.51,1716,2019-04-03 15:48:56:004
0.16,0.75,9.59,-0.47,-0.77,-0.21,0.0,0.02,0.5,1721,2019-04-03 15:48:56:009
0.16,0.75,9.59,-0.47,-0.77,-0.21,0.0,0.02,0.5,1727,2019-04-03 15:48:56:015
0.16,0.75,9.59,-0.47,-0.77,-0.21,0.0,0.02,0.5,1731,2019-04-03 15:48:56:019
0.16,1.8,9.06,-0.47,-0.77,-0.21,0.1,0.04,0.49,1736,2019-04-03 15:48:56:024
-0.32,1.8,9.06,-0.85,0.23,-0.66,0.1,0.04,0.49,1741,2019-04-03 15:48:56:029
-0.32,1.8,9.06,-0.85,0.23,-0.66,0.1,0.04,0.49,1748,2019-04-03 15:48:56:036
-0.32,1.8,9.06,-0.85,0.23,-0.66,0.1,0.04,0.49,1750,2019-04-03 15:48:56:038
-0.32,1.8,9.06,-0.85,0.23,-0.66,0.1,0.04,0.49,1756,2019-04-03 15:48:56:044
-0.32,1.8,9.06,-0.85,0.23,-0.66,0.1,0.04,0.49,1761,2019-04-03 15:48:56:049
-0.32,1.8,9.06,-0.85,0.23,-0.66,0.1,0.04,0.49,1768,2019-04-03 15:48:56:056
-0.32,1.8,9.06,-0.85,0.23,-0.66,0.1,0.04,0.49,1771,2019-04-03 15:48:56:059
1.6,1.41,10.56,1.04,-0.12,0.84,0.06,-0.02,0.47,1776,2019-04-03 15:48:56:064
1.6,1.41,10.56,1.04,-0.12,0.84,0.06,-0.02,0.47,1781,2019-04-03 15:48:56:069
1.6,1.41,10.56,1.04,-0.12,0.84,0.06,-0.02,0.47,1791,2019-04-03 15:48:56:079
1.6,1.41,10.56,1.04,-0.12,0.84,0.06,-0.02,0.47,1792,2019-04-03 15:48:56:080
0.59,1.83,10.28,0.11,0.27,0.58,0.06,0.09,0.5,1797,2019-04-03 15:48:56:085
0.59,1.83,10.28,0.11,0.27,0.58,0.06,0.09,0.5,1801,2019-04-03 15:48:56:089
0.59,1.83,10.28,0.11,0.27,0.58,0.06,0.09,0.5,1806,2019-04-03 15:48:56:094
-0.96,1.1,9.79,-1.34,-0.45,0.07,0.06,0.11,0.48,1811,2019-04-03 15:48:56:099
-0.96,1.1,9.79,-1.34,-0.45,0.07,0.06,0.11,0.48,1816,2019-04-03 15:48:56:104
-0.96,1.1,9.79,-1.34,-0.45,0.07,0.06,0.11,0.48,1821,2019-04-03 15:48:56:109
-0.96,1.1,9.79,-1.34,-0.45,0.07,0.06,0.11,0.48,1826,2019-04-03 15:48:56:114
-0.96,1.1,9.79,-1.34,-0.45,0.07,0.06,0.11,0.48,1831,2019-04-03 15:48:56:119
-0.96,1.1,9.79,-1.34,-0.45,0.07,0.06,0.11,0.48,1836,2019-04-03 15:48:56:124
-0.96,1.1,9.79,-1.34,-0.45,0.07,0.06,0.11,0.48,1841,2019-04-03 15:48:56:129
-0.96,1.17,10.64,0.99,-0.41,0.78,0.05,0.01,0.44,1846,2019-04-03 15:48:56:134
1.37,1.17,10.64,0.99,-0.41,0.78,0.05,0.01,0.44,1854,2019-04-03 15:48:56:142
1.37,1.17,10.64,0.99,-0.41,0.78,0.05,0.01,0.44,1855,2019-04-03 15:48:56:143
1.37,1.17,10.64,0.99,-0.41,0.78,0.05,0.01,0.44,1861,2019-04-03 15:48:56:149
1.37,1.17,10.64,0.99,-0.41,0.78,0.05,0.01,0.44,1866,2019-04-03 15:48:56:154
0.38,1.5,9.81,0.05,-0.06,-0.06,0.04,0.09,0.43,1871,2019-04-03 15:48:56:159
0.38,1.5,9.81,0.05,-0.06,-0.06,0.04,0.09,0.43,1880,2019-04-03 15:48:56:168
0.38,1.5,9.81,0.05,-0.06,-0.06,0.04,0.09,0.43,1881,2019-04-03 15:48:56:169
0.38,1.5,9.81,0.05,-0.06,-0.06,0.04,0.09,0.43,1885,2019-04-03 15:48:56:173
0.05,0.57,9.37,-0.25,-0.87,-0.45,0.01,0.08,0.41,1893,2019-04-03 15:48:56:181
0.05,0.57,9.37,-0.25,-0.87,-0.45,0.01,0.08,0.41,1896,2019-04-03 15:48:56:184
0.05,0.57,9.37,-0.25,-0.87,-0.45,0.01,0.08,0.41,1901,2019-04-03 15:48:56:189
0.05,0.57,9.37,-0.25,-0.87,-0.45,0.01,0.08,0.41,1906,2019-04-03 15:48:56:194
0.05,0.57,9.37,-0.32,-1.31,-0.22,-0.05,0.07,0.36,1912,2019-04-03 15:48:56:200
0.05,0.57,9.37,-0.32,-1.31,-0.22,-0.05,0.07,0.36,1916,2019-04-03 15:48:56:204
0.05,0.57,9.37,-0.32,-1.31,-0.22,-0.05,0.07,0.36,1921,2019-04-03 15:48:56:209
0.05,0.57,9.37,-0.32,-1.31,-0.22,-0.05,0.07,0.36,1926,2019-04-03 15:48:56:214
0.46,-0.42,9.37,0.3,-1.6,-0.49,-0.05,0.07,0.34,1931,2019-04-03 15:48:56:219
0.46,-0.42,9.37,0.3,-1.6,-0.49,-0.05,0.07,0.34,1938,2019-04-03 15:48:56:226
0.46,-0.42,9.37,0.3,-1.6,-0.49,-0.05,0.07,0.34,1941,2019-04-03 15:48:56:229
0.46,-0.42,9.37,0.3,-1.6,-0.49,-0.05,0.07,0.34,1946,2019-04-03 15:48:56:234
-1.41,0.61,9.32,-1.35,-0.29,-0.54,-0.14,0.0,0.3,1952,2019-04-03 15:48:56:240
-1.41,0.61,9.32,-1.35,-0.29,-0.54,-0.14,0.0,0.3,1956,2019-04-03 15:48:56:244
-1.41,0.61,9.32,-1.35,-0.29,-0.54,-0.14,0.0,0.3,1962,2019-04-03 15:48:56:250
-1.41,0.61,9.32,-1.35,-0.29,-0.54,-0.14,0.0,0.3,1965,2019-04-03 15:48:56:253
1.55,0.34,9.44,1.47,-0.39,-0.5,0.02,-0.08,0.27,1971,2019-04-03 15:48:56:259
1.55,0.34,9.44,1.47,-0.39,-0.5,0.02,-0.08,0.27,1976,2019-04-03 15:48:56:264
1.55,0.34,9.44,1.47,-0.39,-0.5,0.02,-0.08,0.27,1981,2019-04-03 15:48:56:269
1.55,0.34,9.44,1.47,-0.39,-0.5,0.02,-0.08,0.27,1986,2019-04-03 15:48:56:274
-0.35,3.05,15.28,-0.51,2.22,5.19,0.12,0.0,0.39,1992,2019-04-03 15:48:56:280
-0.35,3.05,15.28,-0.51,2.22,5.19,0.12,0.0,0.39,1995,2019-04-03 15:48:56:283
-0.35,3.05,15.28,-0.51,2.22,5.19,0.12,0.0,0.39,2002,2019-04-03 15:48:56:290
-0.35,3.05,15.28,-0.51,2.22,5.19,0.12,0.0,0.39,2005,2019-04-03 15:48:56:293
-0.35,3.05,15.28,-0.51,2.22,5.19,0.12,0.0,0.39,2012,2019-04-03 15:48:56:300
-0.35,3.05,15.28,-0.51,2.22,5.19,0.12,0.0,0.39,2016,2019-04-03 15:48:56:304
4.61,-4.89,10.7,4.51,-5.06,-0.07,-0.03,-0.06,0.38,2023,2019-04-03 15:48:56:311
4.61,-4.89,10.7,4.51,-5.06,-0.07,-0.03,-0.06,0.38,2026,2019-04-03 15:48:56:314
4.61,-4.89,10.7,4.17,4.17,3.77,-0.3,0.27,0.51,2033,2019-04-03 15:48:56:321
4.61,-4.89,10.7,4.17,4.17,3.77,-0.3,0.27,0.51,2036,2019-04-03 15:48:56:324
4.61,-4.89,10.7,4.17,4.17,3.77,-0.3,0.27,0.51,2041,2019-04-03 15:48:56:329
4.61,-4.89,10.7,4.17,4.17,3.77,-0.3,0.27,0.51,2046,2019-04-03 15:48:56:334
-2.8,4.77,11.48,-2.94,4.47,0.51,0.14,0.01,0.5,2051,2019-04-03 15:48:56:339
-2.8,4.77,11.48,-2.94,4.47,0.51,0.14,0.01,0.5,2056,2019-04-03 15:48:56:344
-2.8,4.77,11.48,-2.94,4.47,0.51,0.14,0.01,0.5,2061,2019-04-03 15:48:56:349
-2.8,4.77,11.48,-2.94,4.47,0.51,0.14,0.01,0.5,2066,2019-04-03 15:48:56:354
0.71,2.87,10.89,0.59,2.45,-0.47,-0.06,-0.18,0.51,2070,2019-04-03 15:48:56:358
0.71,2.87,10.89,0.59,2.45,-0.47,-0.06,-0.18,0.51,2076,2019-04-03 15:48:56:364
0.71,2.87,10.89,0.59,2.45,-0.47,-0.06,-0.18,0.51,2081,2019-04-03 15:48:56:369
0.71,2.87,10.89,0.59,2.45,-0.47,-0.06,-0.18,0.51,2086,2019-04-03 15:48:56:374
0.71,2.87,10.89,0.59,2.45,-0.47,-0.06,-0.18,0.51,2091,2019-04-03 15:48:56:379
0.71,2.87,10.89,0.59,2.45,-0.47,-0.06,-0.18,0.51,2096,2019-04-03 15:48:56:384
0.21,-2.17,9.78,0.12,-2.51,-1.42,-0.15,-0.04,0.55,2109,2019-04-03 15:48:56:397
0.21,-2.17,9.78,0.12,-2.51,-1.42,-0.15,-0.04,0.55,2110,2019-04-03 15:48:56:398
0.21,-2.17,9.78,0.12,-2.51,-1.42,-0.15,-0.04,0.55,2112,2019-04-03 15:48:56:400
0.21,-2.17,9.78,0.12,-2.51,-1.42,-0.15,-0.04,0.55,2118,2019-04-03 15:48:56:406
0.21,-2.17,9.78,0.12,-2.51,-1.42,-0.15,-0.04,0.55,2122,2019-04-03 15:48:56:410
-2.42,-0.71,9.66,-2.27,-1.14,-1.72,0.0,0.0,0.43,2126,2019-04-03 15:48:56:414
-2.42,-0.71,9.66,-2.27,-1.14,-1.72,0.0,0.0,0.43,2131,2019-04-03 15:48:56:419
-2.42,-0.71,9.66,-2.27,-1.14,-1.72,0.0,0.0,0.43,2136,2019-04-03 15:48:56:424
-2.42,-0.71,9.66,-2.27,-1.14,-1.72,0.0,0.0,0.43,2142,2019-04-03 15:48:56:430
-2.42,-0.71,9.66,-2.27,-1.14,-1.72,0.0,0.0,0.43,2146,2019-04-03 15:48:56:434
-2.42,-0.71,9.66,-2.27,-1.14,-1.72,0.0,0.0,0.43,2151,2019-04-03 15:48:56:439
-2.42,-0.71,9.66,-2.27,-1.14,-1.72,0.0,0.0,0.43,2156,2019-04-03 15:48:56:444
-1.41,-1.61,8.61,-1.45,-1.89,-2.62,-0.04,-0.1,0.35,2161,2019-04-03 15:48:56:449
-1.41,-1.61,8.61,-1.45,-1.89,-2.62,-0.04,-0.1,0.35,2169,2019-04-03 15:48:56:457
-1.41,-1.61,8.61,-1.45,-1.89,-2.62,-0.04,-0.1,0.35,2170,2019-04-03 15:48:56:458
7.79,-4.78,9.54,7.51,-4.66,-1.57,-0.12,-0.39,0.23,2185,2019-04-03 15:48:56:473
7.79,-4.78,9.54,7.51,-4.66,-1.57,-0.12,-0.39,0.23,2186,2019-04-03 15:48:56:474
7.79,-4.78,9.54,7.51,-4.66,-1.57,-0.12,-0.39,0.23,2186,2019-04-03 15:48:56:474
7.79,-4.78,9.54,7.51,-4.66,-1.57,-0.12,-0.39,0.23,2191,2019-04-03 15:48:56:479
-2.09,2.72,10.6,-1.93,2.82,-0.09,0.41,0.34,0.36,2203,2019-04-03 15:48:56:491
-2.09,2.72,10.6,-1.93,2.82,-0.09,0.41,0.34,0.36,2204,2019-04-03 15:48:56:492
-2.09,2.72,10.6,-1.93,2.82,-0.09,0.41,0.34,0.36,2206,2019-04-03 15:48:56:494
-2.09,2.72,10.6,-1.93,2.82,-0.09,0.41,0.34,0.36,2210,2019-04-03 15:48:56:498
-2.09,2.72,10.6,-1.93,2.82,-0.09,0.41,0.34,0.36,2215,2019-04-03 15:48:56:503
-2.09,2.72,10.6,-1.93,2.82,-0.09,0.41,0.34,0.36,2221,2019-04-03 15:48:56:509
4.62,-0.47,12.44,-1.93,2.82,-0.09,0.41,0.34,0.36,2226,2019-04-03 15:48:56:514
4.62,-0.47,12.44,4.65,-1.1,2.08,-0.08,-0.36,0.14,2231,2019-04-03 15:48:56:519
4.62,-0.47,12.44,4.65,-1.1,2.08,-0.08,-0.36,0.14,2236,2019-04-03 15:48:56:524
4.62,-0.47,12.44,4.65,-1.1,2.08,-0.08,-0.36,0.14,2242,2019-04-03 15:48:56:530
4.62,-0.47,12.44,4.65,-1.1,2.08,-0.08,-0.36,0.14,2246,2019-04-03 15:48:56:534
4.62,-0.47,12.44,4.65,-1.1,2.08,-0.08,-0.36,0.14,2251,2019-04-03 15:48:56:539
4.62,-0.47,12.44,4.65,-1.1,2.08,-0.08,-0.36,0.14,2256,2019-04-03 15:48:56:544
4.62,-0.47,12.44,4.65,-1.1,2.08,-0.08,-0.36,0.14,2261,2019-04-03 15:48:56:549
1.47,3.28,6.54,1.68,2.94,-3.29,0.35,-0.06,0.18,2265,2019-04-03 15:48:56:553
1.47,3.28,6.54,1.68,2.94,-3.29,0.35,-0.06,0.18,2271,2019-04-03 15:48:56:559
1.47,3.28,6.54,1.68,2.94,-3.29,0.35,-0.06,0.18,2276,2019-04-03 15:48:56:564
-2.73,-1.66,7.05,-2.63,-1.67,-2.26,-0.11,0.21,0.3,2281,2019-04-03 15:48:56:569
-2.73,-1.66,7.05,-2.63,-1.67,-2.26,-0.11,0.21,0.3,2287,2019-04-03 15:48:56:575
-2.73,-1.66,7.05,-2.63,-1.67,-2.26,-0.11,0.21,0.3,2291,2019-04-03 15:48:56:579
-2.73,-0.31,10.71,2.47,-0.53,1.28,0.05,-0.15,0.29,2295,2019-04-03 15:48:56:583
2.71,-0.31,10.71,2.47,-0.53,1.28,0.05,-0.15,0.29,2300,2019-04-03 15:48:56:588
2.71,-0.31,10.71,2.47,-0.53,1.28,0.05,-0.15,0.29,2307,2019-04-03 15:48:56:595
2.71,-0.31,10.71,2.47,-0.53,1.28,0.05,-0.15,0.29,2311,2019-04-03 15:48:56:599
2.71,-0.31,10.71,2.47,-0.53,1.28,0.05,-0.15,0.29,2316,2019-04-03 15:48:56:604
0.92,2.95,10.79,0.64,2.75,1.29,0.35,-0.04,0.31,2322,2019-04-03 15:48:56:610
0.92,2.95,10.79,0.64,2.75,1.29,0.35,-0.04,0.31,2328,2019-04-03 15:48:56:616
0.92,2.95,10.79,0.64,2.75,1.29,0.35,-0.04,0.31,2331,2019-04-03 15:48:56:619
0.92,2.95,10.79,0.64,2.75,1.29,0.35,-0.04,0.31,2336,2019-04-03 15:48:56:624
-1.71,-2.88,10.6,-2.11,-2.97,1.09,-0.13,0.11,0.36,2342,2019-04-03 15:48:56:630
-1.71,-2.88,10.6,-2.11,-2.97,1.09,0.09,-0.05,0.3,2350,2019-04-03 15:48:56:638
-1.71,-2.88,10.6,-2.11,-2.97,1.09,0.09,-0.05,0.3,2351,2019-04-03 15:48:56:639
-0.22,-1.99,11.83,-0.65,-2.27,2.0,0.09,-0.05,0.3,2355,2019-04-03 15:48:56:643
-0.22,-1.99,11.83,-0.65,-2.27,2.0,0.09,-0.05,0.3,2363,2019-04-03 15:48:56:651
-0.22,-1.99,11.83,-0.65,-2.27,2.0,0.09,-0.05,0.3,2367,2019-04-03 15:48:56:655
-0.22,-1.99,11.83,-0.65,-2.27,2.0,0.09,-0.05,0.3,2371,2019-04-03 15:48:56:659
0.44,1.09,10.55,0.38,0.51,0.66,0.19,-0.02,0.29,2376,2019-04-03 15:48:56:664
0.44,1.09,10.55,0.38,0.51,0.66,0.19,-0.02,0.29,2384,2019-04-03 15:48:56:672
0.44,1.09,10.55,0.38,0.51,0.66,0.19,-0.02,0.29,2388,2019-04-03 15:48:56:676
0.44,1.09,10.55,0.38,0.51,0.66,0.19,-0.02,0.29,2391,2019-04-03 15:48:56:679
0.44,1.09,10.55,0.38,0.51,0.66,0.19,-0.02,0.29,2396,2019-04-03 15:48:56:684
-0.47,-1.45,10.04,-0.9,-1.76,-0.16,-0.09,0.08,0.32,2401,2019-04-03 15:48:56:689
-0.47,-1.45,10.04,-0.9,-1.76,-0.16,-0.09,0.08,0.32,2406,2019-04-03 15:48:56:694
-0.47,-1.45,10.04,-0.9,-1.76,-0.16,-0.09,0.08,0.32,2411,2019-04-03 15:48:56:699
-0.47,-1.45,10.04,-0.9,-1.76,-0.16,-0.09,0.08,0.32,2416,2019-04-03 15:48:56:704
0.39,-0.21,10.26,-0.33,-0.66,0.3,0.01,0.03,0.35,2421,2019-04-03 15:48:56:709
0.39,-0.21,10.26,-0.33,-0.66,0.3,0.01,0.03,0.35,2426,2019-04-03 15:48:56:714
0.39,-0.21,10.26,-0.33,-0.66,0.3,0.01,0.03,0.35,2430,2019-04-03 15:48:56:718
0.39,-0.21,10.26,-0.33,-0.66,0.3,0.01,0.03,0.35,2435,2019-04-03 15:48:56:723
3.48,-1.61,8.15,2.75,-1.59,-1.7,0.03,-0.09,0.37,2441,2019-04-03 15:48:56:729
3.48,-1.61,8.15,2.75,-1.59,-1.7,0.03,-0.09,0.37,2446,2019-04-03 15:48:56:734
3.48,-1.61,8.15,2.75,-1.59,-1.7,0.03,-0.09,0.37,2452,2019-04-03 15:48:56:740
3.48,-1.61,7.89,-2.99,-0.53,-1.87,0.07,0.14,0.37,2456,2019-04-03 15:48:56:744
-2.41,-0.76,7.89,-2.99,-0.53,-1.87,0.07,0.14,0.37,2461,2019-04-03 15:48:56:749
-2.41,-0.76,7.89,-2.99,-0.53,-1.87,0.07,0.14,0.37,2466,2019-04-03 15:48:56:754
-2.41,-0.76,7.89,-2.99,-0.53,-1.87,0.07,0.14,0.37,2471,2019-04-03 15:48:56:759
-2.41,-0.76,7.89,-2.99,-0.53,-1.87,0.07,0.14,0.37,2475,2019-04-03 15:48:56:763
-5.43,0.32,6.83,-5.67,0.46,-3.03,0.06,0.2,0.09,2482,2019-04-03 15:48:56:770
-5.43,0.32,6.83,-5.67,0.46,-3.03,0.06,0.2,0.09,2485,2019-04-03 15:48:56:773
-5.43,0.32,6.83,-5.67,0.46,-3.03,0.06,0.2,0.09,2491,2019-04-03 15:48:56:779
0.23,-1.19,9.96,0.41,-0.67,-0.01,0.0,-0.18,-0.26,2496,2019-04-03 15:48:56:784
0.23,-1.19,9.96,0.41,-0.67,-0.01,0.0,-0.18,-0.26,2502,2019-04-03 15:48:56:790
0.23,-1.19,9.96,0.41,-0.67,-0.01,0.0,-0.18,-0.26,2507,2019-04-03 15:48:56:795
6.94,1.74,8.31,6.71,1.97,-1.25,-0.01,-0.23,-0.35,2511,2019-04-03 15:48:56:799
6.94,1.74,8.31,6.71,1.97,-1.25,-0.01,-0.23,-0.35,2519,2019-04-03 15:48:56:807
6.94,1.74,8.31,6.71,1.97,-1.25,-0.01,-0.23,-0.35,2521,2019-04-03 15:48:56:809
5.39,8.24,13.84,4.92,7.68,4.21,0.31,-0.02,-0.2,2526,2019-04-03 15:48:56:814
5.39,8.24,13.84,4.92,7.68,4.21,0.31,-0.02,-0.2,2533,2019-04-03 15:48:56:821
5.39,8.24,13.84,4.92,7.68,4.21,0.31,-0.02,-0.2,2536,2019-04-03 15:48:56:824
5.39,8.24,13.84,4.92,7.68,4.21,0.31,-0.02,-0.2,2541,2019-04-03 15:48:56:829
-3.42,-4.63,9.91,-3.74,-5.01,0.34,-0.26,0.36,-0.16,2545,2019-04-03 15:48:56:833
-3.42,-4.63,9.91,-3.74,-5.01,0.34,-0.26,0.36,-0.16,2551,2019-04-03 15:48:56:839
-3.42,-4.63,9.91,-3.74,-5.01,0.34,-0.26,0.36,-0.16,2556,2019-04-03 15:48:56:844
-3.42,-4.63,9.91,-3.74,-5.01,0.34,-0.26,0.36,-0.16,2561,2019-04-03 15:48:56:849
-3.42,-4.63,9.91,-3.74,-5.01,0.34,-0.26,0.36,-0.16,2567,2019-04-03 15:48:56:855
-3.42,-4.63,9.91,-3.74,-5.01,0.34,-0.26,0.36,-0.16,2571,2019-04-03 15:48:56:859
-3.42,-4.63,9.91,-3.74,-5.01,0.34,-0.26,0.36,-0.16,2576,2019-04-03 15:48:56:864
1.63,1.06,5.81,0.94,0.48,-3.42,0.2,0.0,-0.3,2581,2019-04-03 15:48:56:869
1.63,1.06,5.81,0.94,0.48,-3.42,0.2,0.0,-0.3,2585,2019-04-03 15:48:56:873
1.63,1.06,5.81,0.94,0.48,-3.42,0.2,0.0,-0.3,2593,2019-04-03 15:48:56:881
-0.98,1.07,7.5,-1.65,0.56,-1.58,0.17,0.08,-0.18,2596,2019-04-03 15:48:56:884
-0.98,1.07,7.5,-1.65,0.56,-1.58,0.17,0.08,-0.18,2601,2019-04-03 15:48:56:889
-0.98,1.07,7.5,-1.65,0.56,-1.58,0.17,0.08,-0.18,2607,2019-04-03 15:48:56:895
-0.98,1.07,7.5,-1.65,0.56,-1.58,0.17,0.08,-0.18,2613,2019-04-03 15:48:56:901
-0.98,0.61,10.06,-1.65,0.56,-1.58,-0.15,-0.02,-0.23,2616,2019-04-03 15:48:56:904
0.02,0.61,10.06,-0.45,0.06,1.03,-0.15,-0.02,-0.23,2621,2019-04-03 15:48:56:909
0.02,0.61,10.06,-0.45,0.06,1.03,-0.15,-0.02,-0.23,2626,2019-04-03 15:48:56:914
-0.4,3.5,9.6,-0.63,2.43,0.57,0.11,0.0,-0.28,2631,2019-04-03 15:48:56:919
-0.4,3.5,9.6,-0.63,2.43,0.57,0.11,0.0,-0.28,2637,2019-04-03 15:48:56:925
-0.4,3.5,9.6,-0.63,2.43,0.57,0.11,0.0,-0.28,2641,2019-04-03 15:48:56:929
-0.4,3.5,9.6,-0.63,2.43,0.57,0.11,0.0,-0.28,2647,2019-04-03 15:48:56:935
3.32,3.94,9.77,2.78,2.61,0.49,0.12,-0.16,-0.31,2653,2019-04-03 15:48:56:941
3.32,3.94,9.77,2.78,2.61,0.49,0.12,-0.16,-0.31,2656,2019-04-03 15:48:56:944
3.32,3.94,9.77,2.78,2.61,0.49,0.12,-0.16,-0.31,2661,2019-04-03 15:48:56:949
3.32,3.94,9.77,2.78,2.61,0.49,0.12,-0.16,-0.31,2666,2019-04-03 15:48:56:954
3.34,1.22,12.18,2.52,-0.3,2.82,-0.07,-0.15,-0.3,2672,2019-04-03 15:48:56:960
3.34,1.22,12.18,2.52,-0.3,2.82,-0.07,-0.15,-0.3,2676,2019-04-03 15:48:56:964
3.34,1.22,12.18,2.52,-0.3,2.82,-0.07,-0.15,-0.3,2682,2019-04-03 15:48:56:970
3.34,1.22,12.18,2.52,-0.3,2.82,-0.07,-0.15,-0.3,2686,2019-04-03 15:48:56:974
1.05,3.24,9.22,-0.02,1.21,-0.08,0.1,0.02,-0.25,2694,2019-04-03 15:48:56:982
1.05,3.24,9.22,-0.02,1.21,-0.08,0.1,0.02,-0.25,2696,2019-04-03 15:48:56:984
1.05,3.24,9.22,-0.02,1.21,-0.08,0.1,0.02,-0.25,2701,2019-04-03 15:48:56:989
1.05,3.24,9.22,-0.02,1.21,-0.08,0.1,0.02,-0.25,2706,2019-04-03 15:48:56:994
1.05,3.24,9.22,-0.02,1.21,-0.08,0.1,0.02,-0.25,2711,2019-04-03 15:48:56:999
1.05,3.24,9.22,-0.02,1.21,-0.08,0.1,0.02,-0.25,2716,2019-04-03 15:48:57:004
1.12,-0.14,8.42,0.23,-1.78,-1.3,0.08,0.0,-0.19,2720,2019-04-03 15:48:57:008
1.12,-0.14,8.42,0.23,-1.78,-1.3,0.08,0.0,-0.19,2727,2019-04-03 15:48:57:015
-2.53,1.33,11.71,-3.1,0.05,2.06,0.08,0.07,-0.09,2732,2019-04-03 15:48:57:020
-2.53,1.33,11.71,-3.1,0.05,2.06,0.08,0.07,-0.09,2735,2019-04-03 15:48:57:023
-2.53,1.33,11.71,-3.1,0.05,2.06,0.08,0.07,-0.09,2742,2019-04-03 15:48:57:030
-2.53,1.33,11.71,-3.1,0.05,2.06,0.08,0.07,-0.09,2745,2019-04-03 15:48:57:033
-0.01,3.25,7.64,-0.7,1.77,-1.98,0.08,-0.05,-0.14,2752,2019-04-03 15:48:57:040
-0.01,3.25,7.64,-0.7,1.77,-1.98,0.08,-0.05,-0.14,2756,2019-04-03 15:48:57:044
-0.01,3.25,7.64,-0.7,1.77,-1.98,0.08,-0.05,-0.14,2761,2019-04-03 15:48:57:049
-0.01,3.25,7.64,-0.7,1.77,-1.98,0.08,-0.05,-0.14,2765,2019-04-03 15:48:57:053
0.79,-0.83,12.14,0.32,-2.32,2.31,-0.15,-0.07,-0.12,2774,2019-04-03 15:48:57:062
0.79,-0.83,12.14,0.32,-2.32,2.31,-0.15,-0.07,-0.12,2783,2019-04-03 15:48:57:071
0.79,-0.83,12.14,0.32,-2.32,2.31,-0.15,-0.07,-0.12,2784,2019-04-03 15:48:57:072
0.79,-0.83,12.14,0.32,-2.32,2.31,-0.15,-0.07,-0.12,2786,2019-04-03 15:48:57:074
1.71,3.65,10.27,1.21,1.77,0.47,0.08,-0.04,-0.07,2791,2019-04-03 15:48:57:079
1.71,3.65,10.27,1.21,1.77,0.47,0.08,-0.04,-0.07,2797,2019-04-03 15:48:57:085
1.71,3.65,10.27,1.21,1.77,0.47,0.08,-0.04,-0.07,2802,2019-04-03 15:48:57:090
1.71,3.65,10.27,1.21,1.77,0.47,0.08,-0.04,-0.07,2805,2019-04-03 15:48:57:093
1.71,3.65,10.27,1.21,1.77,0.47,0.08,-0.04,-0.07,2812,2019-04-03 15:48:57:100
0.2,3.76,10.15,-0.55,1.68,0.19,0.02,0.03,-0.03,2816,2019-04-03 15:48:57:104
0.2,3.76,10.15,-0.55,1.68,0.19,0.02,0.03,-0.03,2821,2019-04-03 15:48:57:109
0.2,3.76,10.15,-0.55,1.68,0.19,0.02,0.03,-0.03,2826,2019-04-03 15:48:57:114
-1.09,1.25,9.64,-1.96,2.55,1.67,0.13,0.05,-0.01,2831,2019-04-03 15:48:57:119
-1.09,1.25,9.64,-1.96,2.55,1.67,-0.14,0.02,-0.05,2837,2019-04-03 15:48:57:125
-1.09,1.25,9.64,-4.75,-0.69,-2.02,-0.14,0.02,-0.05,2841,2019-04-03 15:48:57:129
-1.09,1.25,9.64,-4.75,-0.69,-2.02,-0.14,0.02,-0.05,2847,2019-04-03 15:48:57:135
-1.09,1.25,9.64,-4.75,-0.69,-2.02,-0.14,0.02,-0.05,2851,2019-04-03 15:48:57:139
-1.09,1.25,9.64,-4.75,-0.69,-2.02,-0.14,0.02,-0.05,2857,2019-04-03 15:48:57:145
-1.09,1.25,9.64,-4.75,-0.69,-2.02,-0.14,0.02,-0.05,2861,2019-04-03 15:48:57:149
-1.09,1.25,9.64,-4.75,-0.69,-2.02,-0.14,0.02,-0.05,2866,2019-04-03 15:48:57:154
3.4,0.19,9.79,2.2,-1.7,-0.42,-0.15,0.03,-0.02,2871,2019-04-03 15:48:57:159
3.4,0.19,9.79,2.2,-1.7,-0.42,-0.15,0.03,-0.02,2877,2019-04-03 15:48:57:165
3.4,0.19,9.79,2.2,-1.7,-0.42,-0.15,0.03,-0.02,2882,2019-04-03 15:48:57:170
3.4,0.19,9.79,2.2,-1.7,-0.42,-0.15,0.03,-0.02,2886,2019-04-03 15:48:57:174
-4.28,2.39,7.37,-5.23,0.42,-2.53,0.13,0.39,-0.03,2891,2019-04-03 15:48:57:179
-4.28,2.39,7.37,-5.23,0.42,-2.53,0.13,0.39,-0.03,2898,2019-04-03 15:48:57:186
-4.28,2.39,7.37,-5.23,0.42,-2.53,0.13,0.39,-0.03,2901,2019-04-03 15:48:57:189
-4.28,2.39,7.37,-5.23,0.42,-2.53,0.13,0.39,-0.03,2906,2019-04-03 15:48:57:194
-0.01,0.38,9.08,-0.92,-1.41,-0.82,-0.31,-0.14,-0.13,2912,2019-04-03 15:48:57:200
-0.01,0.38,9.08,-0.92,-1.41,-0.82,-0.31,-0.14,-0.13,2916,2019-04-03 15:48:57:204
-0.01,0.38,9.08,-0.92,-1.41,-0.82,-0.31,-0.14,-0.13,2923,2019-04-03 15:48:57:211
-2.08,2.56,9.74,-2.76,0.58,-0.03,0.1,-0.14,-0.14,2927,2019-04-03 15:48:57:215
-2.08,2.56,9.74,-2.76,0.58,-0.03,0.1,-0.14,-0.14,2933,2019-04-03 15:48:57:221
-12.71,-1.56,5.55,15.18,1.15,8.85,0.07,0.64,0.05,2938,2019-04-03 15:48:57:226
-12.71,-1.56,5.55,15.18,1.15,8.85,0.07,0.64,0.05,2941,2019-04-03 15:48:57:229
-12.71,-1.56,5.55,15.18,1.15,8.85,0.07,0.64,0.05,2946,2019-04-03 15:48:57:234
-12.71,-1.56,5.55,15.18,1.15,8.85,0.07,0.64,0.05,2951,2019-04-03 15:48:57:239
-12.71,-1.56,5.55,15.18,1.15,8.85,0.07,0.64,0.05,2956,2019-04-03 15:48:57:244
1.36,0.49,12.58,-0.9,-1.54,1.76,-0.16,0.73,0.1,2962,2019-04-03 15:48:57:250
1.36,0.49,12.58,-0.9,-1.54,1.76,-0.16,0.73,0.1,2966,2019-04-03 15:48:57:254
1.36,0.49,12.58,-0.9,-1.54,1.76,-0.16,0.73,0.1,2971,2019-04-03 15:48:57:259
1.36,0.49,12.58,-0.9,-1.54,1.76,-0.16,0.73,0.1,2976,2019-04-03 15:48:57:264
1.36,0.49,12.58,-0.9,-1.54,1.76,-0.16,0.73,0.1,2981,2019-04-03 15:48:57:269
1.36,0.49,12.58,-0.9,-1.54,1.76,-0.16,0.73,0.1,2986,2019-04-03 15:48:57:274
-5.35,-1.2,9.02,5.56,-2.28,2.37,-0.02,-0.69,-0.09,2991,2019-04-03 15:48:57:279
-5.35,-1.2,9.02,5.56,-2.28,2.37,-0.02,-0.69,-0.09,2999,2019-04-03 15:48:57:287
-5.35,-1.2,9.02,5.56,-2.28,2.37,-0.02,-0.69,-0.09,3001,2019-04-03 15:48:57:289
-1.18,0.29,11.06,5.56,-2.28,2.37,0.04,-0.08,0.05,3007,2019-04-03 15:48:57:295
-1.18,0.29,11.06,-2.24,1.32,-2.43,0.04,-0.08,0.05,3011,2019-04-03 15:48:57:299
-1.18,0.29,11.06,-2.24,1.32,-2.43,-0.12,0.08,0.0,3016,2019-04-03 15:48:57:304
-1.18,0.29,11.06,-2.24,1.32,-2.43,-0.12,0.08,0.0,3020,2019-04-03 15:48:57:308
-1.18,0.29,11.06,-2.24,1.32,-2.43,-0.12,0.08,0.0,3026,2019-04-03 15:48:57:314
-1.18,0.29,11.06,-3.15,1.32,2.99,-0.03,-0.06,-0.12,3035,2019-04-03 15:48:57:323
-1.18,0.29,11.06,-3.15,1.32,2.99,-0.03,-0.06,-0.12,3037,2019-04-03 15:48:57:325
-2.34,6.26,10.58,-3.15,1.32,2.99,-0.03,-0.06,-0.12,3043,2019-04-03 15:48:57:331
-2.34,6.26,10.58,-3.15,1.32,2.99,-0.03,-0.06,-0.12,3046,2019-04-03 15:48:57:334
-2.34,6.26,10.58,-3.15,1.32,2.99,-0.03,-0.06,-0.12,3053,2019-04-03 15:48:57:341
-2.34,6.26,10.58,-3.15,1.32,2.99,-0.03,-0.06,-0.12,3057,2019-04-03 15:48:57:345
1.46,5.58,15.2,-3.15,1.32,2.99,-0.03,-0.06,-0.12,3061,2019-04-03 15:48:57:349
1.46,5.58,15.2,-0.7,4.15,3.17,0.18,-0.05,-0.14,3066,2019-04-03 15:48:57:354
1.46,5.58,15.2,-0.7,4.15,3.17,0.18,-0.05,-0.14,3071,2019-04-03 15:48:57:359
1.46,5.58,15.2,-0.7,4.15,3.17,0.18,-0.05,-0.14,3078,2019-04-03 15:48:57:366
3.89,2.65,5.51,1.48,1.02,-6.81,0.21,-0.02,-0.26,3082,2019-04-03 15:48:57:370
3.89,2.65,5.51,1.48,1.02,-6.81,0.21,-0.02,-0.26,3086,2019-04-03 15:48:57:374
3.89,2.65,5.51,1.48,1.02,-6.81,0.21,-0.02,-0.26,3091,2019-04-03 15:48:57:379
3.89,2.65,5.51,1.48,1.02,-6.81,0.21,-0.02,-0.26,3097,2019-04-03 15:48:57:385
3.89,2.65,5.51,1.48,1.02,-6.81,0.21,-0.02,-0.26,3103,2019-04-03 15:48:57:391
3.89,2.65,5.51,1.48,1.02,-6.81,0.21,-0.02,-0.26,3106,2019-04-03 15:48:57:394
3.89,2.65,5.51,1.48,1.02,-6.81,0.21,-0.02,-0.26,3110,2019-04-03 15:48:57:398
3.89,5.27,0.56,-13.45,4.18,-12.0,-0.05,-0.54,-0.38,3117,2019-04-03 15:48:57:405
-11.61,5.27,0.56,-13.45,4.18,-12.0,-0.05,-0.54,-0.38,3123,2019-04-03 15:48:57:411
-11.61,5.27,0.56,-13.45,4.18,-12.0,-0.05,-0.54,-0.38,3126,2019-04-03 15:48:57:414
-11.61,5.27,0.56,-13.45,4.18,-12.0,-0.56,-0.2,-0.28,3131,2019-04-03 15:48:57:419
-11.61,5.27,0.56,-13.45,4.18,-12.0,-0.56,-0.2,-0.28,3136,2019-04-03 15:48:57:424
-11.61,5.27,0.56,-13.45,4.18,-12.0,-0.56,-0.2,-0.28,3141,2019-04-03 15:48:57:429
-11.61,5.27,0.56,-13.45,4.18,-12.0,-0.56,-0.2,-0.28,3147,2019-04-03 15:48:57:435
-11.61,5.27,0.56,-13.45,4.18,-12.0,-0.56,-0.2,-0.28,3151,2019-04-03 15:48:57:439
-11.61,5.27,0.56,-13.45,4.18,-12.0,-0.56,-0.2,-0.28,3156,2019-04-03 15:48:57:444
0.91,-4.7,14.41,-0.15,-4.56,1.84,0.53,0.62,-0.29,3161,2019-04-03 15:48:57:449
0.91,-4.7,14.41,-0.15,-4.56,1.84,0.53,0.62,-0.29,3166,2019-04-03 15:48:57:454
0.91,-4.7,14.41,-0.15,-4.56,1.84,0.53,0.62,-0.29,3171,2019-04-03 15:48:57:459
0.91,-4.7,14.41,-0.15,-4.56,1.84,0.53,0.62,-0.29,3176,2019-04-03 15:48:57:464
-4.88,4.49,1.81,-5.51,4.61,-10.53,0.43,0.44,-0.42,3181,2019-04-03 15:48:57:469
-4.88,4.49,1.81,-5.51,4.61,-10.53,0.43,0.44,-0.42,3187,2019-04-03 15:48:57:475
1.8,-5.27,7.57,-5.51,4.61,-10.53,-0.31,-0.1,-0.45,3193,2019-04-03 15:48:57:481
1.8,-5.27,7.57,-5.51,4.61,-10.53,-0.31,-0.1,-0.45,3196,2019-04-03 15:48:57:484
1.8,-5.27,7.57,-5.51,4.61,-10.53,-0.31,-0.1,-0.45,3202,2019-04-03 15:48:57:490
1.8,-5.27,7.57,-5.51,4.61,-10.53,-0.31,-0.1,-0.45,3206,2019-04-03 15:48:57:494
-0.85,-2.68,13.86,-1.52,-1.88,1.92,0.41,0.12,-0.39,3211,2019-04-03 15:48:57:499
-0.85,-2.68,13.86,-1.52,-1.88,1.92,0.41,0.12,-0.39,3216,2019-04-03 15:48:57:504
-0.85,-2.68,13.86,-1.52,-1.88,1.92,0.41,0.12,-0.39,3221,2019-04-03 15:48:57:509
-0.85,-2.68,13.86,-1.52,-1.88,1.92,0.41,0.12,-0.39,3227,2019-04-03 15:48:57:515
-0.85,-2.68,13.86,-1.52,-1.88,1.92,0.41,0.12,-0.39,3231,2019-04-03 15:48:57:519
-0.85,-2.68,13.86,-1.52,-1.88,1.92,0.41,0.12,-0.39,3236,2019-04-03 15:48:57:524
8.54,8.3,9.11,-0.03,2.35,-3.32,-0.61,0.04,-0.37,3241,2019-04-03 15:48:57:529
8.54,8.3,9.11,-0.03,2.35,-3.32,-0.61,0.04,-0.37,3246,2019-04-03 15:48:57:534
8.54,8.3,9.11,-0.03,2.35,-3.32,-0.61,0.04,-0.37,3251,2019-04-03 15:48:57:539
8.54,8.3,9.11,-0.03,2.35,-3.32,-0.61,0.04,-0.37,3256,2019-04-03 15:48:57:544
8.54,8.3,9.11,-0.03,2.35,-3.32,-0.61,0.04,-0.37,3263,2019-04-03 15:48:57:551
8.54,8.3,9.11,-0.03,2.35,-3.32,-0.61,0.04,-0.37,3265,2019-04-03 15:48:57:553
8.79,-0.3,6.43,7.57,1.35,-3.38,0.14,-0.53,-0.34,3271,2019-04-03 15:48:57:559
8.79,-0.3,6.43,7.57,1.35,-3.38,0.14,-0.53,-0.34,3276,2019-04-03 15:48:57:564
8.79,-0.3,6.43,7.57,1.35,-3.38,-0.18,0.06,-0.11,3283,2019-04-03 15:48:57:571
8.79,-0.3,6.43,0.94,0.55,-1.18,-0.18,0.06,-0.11,3287,2019-04-03 15:48:57:575
8.79,-0.3,6.43,0.94,0.55,-1.18,-0.18,0.06,-0.11,3291,2019-04-03 15:48:57:579
8.79,-0.3,6.43,0.94,0.55,-1.18,-0.18,0.06,-0.11,3296,2019-04-03 15:48:57:584
0.54,1.19,11.19,-0.64,2.42,2.14,0.16,-0.35,-0.25,3302,2019-04-03 15:48:57:590
0.54,1.19,11.19,-0.64,2.42,2.14,0.16,-0.35,-0.25,3306,2019-04-03 15:48:57:594
0.54,1.19,11.19,-0.64,2.42,2.14,0.16,-0.35,-0.25,3311,2019-04-03 15:48:57:599
0.54,1.19,11.19,-0.64,2.42,2.14,0.16,-0.35,-0.25,3316,2019-04-03 15:48:57:604
-0.91,0.05,10.75,0.36,-0.29,1.47,-0.15,-0.02,-0.05,3323,2019-04-03 15:48:57:611
-0.91,0.05,10.75,0.36,-0.29,1.47,-0.15,-0.02,-0.05,3326,2019-04-03 15:48:57:614
-0.91,0.05,10.75,0.36,-0.29,1.47,-0.15,-0.02,-0.05,3331,2019-04-03 15:48:57:619
-0.91,0.05,10.75,0.36,-0.29,1.47,-0.15,-0.02,-0.05,3336,2019-04-03 15:48:57:624
1.7,-0.65,7.2,0.12,0.66,-1.61,0.09,-0.03,0.0,3343,2019-04-03 15:48:57:631
1.7,-0.65,7.2,0.12,0.66,-1.61,0.09,-0.03,0.0,3347,2019-04-03 15:48:57:635
1.7,-0.65,7.2,0.12,0.66,-1.61,0.09,-0.03,0.0,3351,2019-04-03 15:48:57:639
1.7,-1.55,4.89,-5.66,-0.42,-3.26,0.0,-0.19,0.04,3356,2019-04-03 15:48:57:644
-4.47,-1.55,4.89,-5.66,-0.42,-3.26,0.0,-0.19,0.04,3362,2019-04-03 15:48:57:650
-4.47,-1.55,4.89,-5.66,-0.42,-3.26,0.0,-0.19,0.04,3366,2019-04-03 15:48:57:654
-4.47,-1.55,4.89,-5.66,-0.42,-3.26,0.0,-0.19,0.04,3371,2019-04-03 15:48:57:659
-4.47,-1.55,4.89,-5.66,-0.42,-3.26,0.0,-0.19,0.04,3376,2019-04-03 15:48:57:664
-2.24,0.93,2.99,-2.35,1.88,-3.89,-0.22,-0.22,0.11,3382,2019-04-03 15:48:57:670
-2.24,0.93,2.99,-2.35,1.88,-3.89,-0.22,-0.22,0.11,3388,2019-04-03 15:48:57:676
-2.24,0.93,2.99,-2.35,1.88,-3.89,-0.22,-0.22,0.11,3395,2019-04-03 15:48:57:683
-2.24,0.93,2.99,-2.35,1.88,-3.89,-0.22,-0.22,0.11,3396,2019-04-03 15:48:57:684
6.35,-4.61,13.58,5.68,-3.31,5.6,-0.12,0.09,0.12,3407,2019-04-03 15:48:57:695
6.35,-4.61,13.58,5.68,-3.31,5.6,-0.12,0.09,0.12,3408,2019-04-03 15:48:57:696
-0.03,-2.03,9.45,-7.72,2.29,-1.21,0.11,0.36,0.15,3412,2019-04-03 15:48:57:700
-0.03,-2.03,9.45,-7.72,2.29,-1.21,0.11,0.36,0.15,3416,2019-04-03 15:48:57:704
-0.03,-2.03,9.45,-7.72,2.29,-1.21,0.11,0.36,0.15,3423,2019-04-03 15:48:57:711
-0.03,-2.03,9.45,-7.72,2.29,-1.21,0.11,0.36,0.15,3426,2019-04-03 15:48:57:714
7.71,-1.05,14.16,6.8,0.13,5.95,0.05,0.04,0.16,3432,2019-04-03 15:48:57:720
7.71,-1.05,14.16,6.8,0.13,5.95,0.05,0.04,0.16,3436,2019-04-03 15:48:57:724
7.71,-1.05,14.16,6.8,0.13,5.95,0.05,0.04,0.16,3440,2019-04-03 15:48:57:728
7.71,-1.05,14.16,6.8,0.13,5.95,0.05,0.04,0.16,3446,2019-04-03 15:48:57:734
7.71,-1.05,14.16,6.8,0.13,5.95,0.05,0.04,0.16,3452,2019-04-03 15:48:57:740
7.71,-1.05,14.16,6.8,0.13,5.95,0.05,0.04,0.16,3455,2019-04-03 15:48:57:743
-9.47,-3.7,7.49,-9.5,-2.33,-1.16,-0.16,-0.32,-0.18,3461,2019-04-03 15:48:57:749
-9.47,-3.7,7.49,-9.5,-2.33,-1.16,-0.16,-0.32,-0.18,3466,2019-04-03 15:48:57:754
-9.47,-3.7,7.49,-9.5,-2.33,-1.16,-0.16,-0.32,-0.18,3472,2019-04-03 15:48:57:760
-9.47,-3.7,7.49,-9.5,-2.33,-1.16,0.13,-0.54,-0.53,3476,2019-04-03 15:48:57:764
-4.58,-2.5,14.39,-3.66,-0.97,4.99,0.13,-0.54,-0.53,3482,2019-04-03 15:48:57:770
-4.58,-2.5,14.39,-3.66,-0.97,4.99,0.13,-0.54,-0.53,3487,2019-04-03 15:48:57:775
-4.58,-2.5,14.39,-3.66,-0.97,4.99,0.13,-0.54,-0.53,3491,2019-04-03 15:48:57:779
-4.58,-2.5,14.39,-3.66,-0.97,4.99,0.13,-0.54,-0.53,3496,2019-04-03 15:48:57:784
9.2,14.75,-10.51,9.89,15.46,-19.04,0.16,0.22,-0.66,3501,2019-04-03 15:48:57:789
9.2,14.75,-10.51,9.89,15.46,-19.04,0.16,0.22,-0.66,3506,2019-04-03 15:48:57:794
9.2,14.75,-10.51,9.89,15.46,-19.04,0.16,0.22,-0.66,3511,2019-04-03 15:48:57:799
-4.89,-0.91,20.19,-4.32,-1.26,10.29,-0.01,-0.18,-0.52,3516,2019-04-03 15:48:57:804
-4.89,-0.91,20.19,-4.32,-1.26,10.29,-0.01,-0.18,-0.52,3521,2019-04-03 15:48:57:809
-4.89,-0.91,20.19,-4.32,-1.26,10.29,-0.01,-0.18,-0.52,3526,2019-04-03 15:48:57:814
-4.89,-0.91,20.19,-4.32,-1.26,10.29,-0.01,-0.18,-0.52,3531,2019-04-03 15:48:57:819
4.3,3.84,12.54,5.0,3.08,2.02,0.13,-0.02,-0.43,3536,2019-04-03 15:48:57:824
4.3,3.84,12.54,5.0,3.08,2.02,0.13,-0.02,-0.43,3541,2019-04-03 15:48:57:829
4.3,3.84,12.54,5.0,3.08,2.02,0.13,-0.02,-0.43,3548,2019-04-03 15:48:57:836
4.3,3.84,12.54,5.0,3.08,2.02,0.13,-0.02,-0.43,3551,2019-04-03 15:48:57:839
5.19,-0.87,13.75,5.29,-1.68,2.52,-0.29,0.03,-0.54,3556,2019-04-03 15:48:57:844
5.19,-0.87,13.75,5.29,-1.68,2.52,-0.29,0.03,-0.54,3561,2019-04-03 15:48:57:849
5.19,-0.87,13.75,5.29,-1.68,2.52,-0.29,0.03,-0.54,3569,2019-04-03 15:48:57:857
5.19,-0.87,13.75,5.29,-1.68,2.52,-0.29,0.03,-0.54,3571,2019-04-03 15:48:57:859
5.19,0.87,11.17,1.92,0.03,0.3,0.0,0.0,-0.48,3575,2019-04-03 15:48:57:863
1.81,0.87,11.17,1.92,0.03,0.3,0.0,0.0,-0.48,3581,2019-04-03 15:48:57:869
1.81,0.87,11.17,1.92,0.03,0.3,0.0,0.0,-0.48,3588,2019-04-03 15:48:57:876
1.81,0.87,11.17,1.92,0.03,0.3,0.0,0.0,-0.48,3591,2019-04-03 15:48:57:879
1.81,0.87,11.17,1.92,0.03,0.3,0.0,0.0,-0.48,3596,2019-04-03 15:48:57:884
-4.61,2.92,4.63,-3.71,1.43,-5.7,0.03,-0.19,-0.52,3602,2019-04-03 15:48:57:890
-4.61,2.92,4.63,-3.71,1.43,-5.7,0.03,-0.19,-0.52,3606,2019-04-03 15:48:57:894
-4.61,2.92,4.63,-3.71,1.43,-5.7,0.03,-0.19,-0.52,3611,2019-04-03 15:48:57:899
-4.61,2.92,4.63,-3.71,1.43,-5.7,0.03,-0.19,-0.52,3616,2019-04-03 15:48:57:904
2.95,1.62,10.42,3.6,0.0,0.07,-0.08,-0.19,-0.54,3621,2019-04-03 15:48:57:909
2.95,1.62,10.42,3.6,0.0,0.07,-0.08,-0.19,-0.54,3626,2019-04-03 15:48:57:914
2.95,1.62,10.42,3.6,0.0,0.07,-0.08,-0.19,-0.54,3631,2019-04-03 15:48:57:919
2.95,1.62,10.42,3.6,0.0,0.07,-0.08,-0.19,-0.54,3636,2019-04-03 15:48:57:924
7.57,4.15,11.99,7.45,2.45,1.33,-0.04,0.17,-0.46,3641,2019-04-03 15:48:57:929
7.57,4.15,11.99,7.45,2.45,1.33,-0.04,0.17,-0.46,3645,2019-04-03 15:48:57:933
7.57,4.15,11.99,7.45,2.45,1.33,-0.04,0.17,-0.46,3651,2019-04-03 15:48:57:939
7.57,4.15,11.99,7.45,2.45,1.33,-0.04,0.17,-0.46,3656,2019-04-03 15:48:57:944
-0.66,1.05,14.67,-1.21,-1.39,3.93,0.07,0.15,-0.3,3660,2019-04-03 15:48:57:948
-0.66,1.05,14.67,-1.21,-1.39,3.93,0.07,0.15,-0.3,3666,2019-04-03 15:48:57:954
-0.52,1.0,14.67,-1.21,-1.39,3.93,-0.29,-0.17,-0.33,3671,2019-04-03 15:48:57:959
-0.52,1.0,14.67,-1.21,-1.39,3.93,-0.29,-0.17,-0.33,3676,2019-04-03 15:48:57:964
-0.52,1.0,14.67,-1.21,-1.39,3.93,-0.29,-0.17,-0.33,3681,2019-04-03 15:48:57:969
-0.52,1.0,14.67,-1.21,-1.39,3.93,-0.29,-0.17,-0.33,3686,2019-04-03 15:48:57:974
-0.52,1.0,14.67,-2.22,-2.09,4.03,-0.29,-0.17,-0.33,3691,2019-04-03 15:48:57:979
-0.52,1.0,14.67,-2.22,-2.09,4.03,-0.29,-0.17,-0.33,3696,2019-04-03 15:48:57:984
-0.42,0.14,4.94,-1.61,-2.22,-6.46,-0.07,0.11,-0.13,3701,2019-04-03 15:48:57:989
-0.42,0.14,4.94,-1.61,-2.22,-6.46,-0.07,0.11,-0.13,3706,2019-04-03 15:48:57:994
-0.42,0.14,4.94,-1.61,-2.22,-6.46,-0.07,0.11,-0.13,3711,2019-04-03 15:48:57:999
-0.42,0.14,4.94,-1.61,-2.22,-6.46,-0.07,0.11,-0.13,3716,2019-04-03 15:48:58:004
-1.56,-2.7,11.34,-2.7,-4.27,1.31,0.26,-0.2,-0.12,3721,2019-04-03 15:48:58:009
-1.56,-2.7,11.34,-2.7,-4.27,1.31,0.26,-0.2,-0.12,3726,2019-04-03 15:48:58:014
-1.56,-2.7,11.34,-2.7,-4.27,1.31,0.26,-0.2,-0.12,3731,2019-04-03 15:48:58:019
-1.56,-2.7,11.34,-2.7,-4.27,1.31,0.26,-0.2,-0.12,3736,2019-04-03 15:48:58:024
-12.58,1.09,-0.88,-13.26,0.31,-10.32,-0.26,-0.11,0.0,3741,2019-04-03 15:48:58:029
-12.58,1.09,-0.88,-13.26,0.31,-10.32,-0.26,-0.11,0.0,3746,2019-04-03 15:48:58:034
-6.96,4.6,11.82,-8.25,3.4,1.92,-0.28,-0.52,-0.01,3751,2019-04-03 15:48:58:039
-6.96,4.6,11.82,-8.25,3.4,1.92,-0.28,-0.52,-0.01,3755,2019-04-03 15:48:58:043
-6.96,4.6,11.82,-8.25,3.4,1.92,-0.28,-0.52,-0.01,3761,2019-04-03 15:48:58:049
-6.96,4.6,11.82,-8.25,3.4,1.92,-0.28,-0.52,-0.01,3767,2019-04-03 15:48:58:055
-6.96,4.6,11.82,-8.25,3.4,1.92,-0.28,-0.52,-0.01,3771,2019-04-03 15:48:58:059
-6.96,4.6,11.82,-8.25,3.4,1.92,-0.28,-0.52,-0.01,3776,2019-04-03 15:48:58:064
-1.79,3.98,8.05,-2.81,2.61,-1.69,0.18,0.85,0.26,3781,2019-04-03 15:48:58:069
-1.79,3.98,8.05,-2.81,2.61,-1.69,0.18,0.85,0.26,3786,2019-04-03 15:48:58:074
-1.79,3.98,8.05,-2.81,2.61,-1.69,-0.17,-0.6,-0.01,3791,2019-04-03 15:48:58:079
-1.79,3.98,8.05,-2.81,2.61,-1.69,-0.17,-0.6,-0.01,3795,2019-04-03 15:48:58:083
-1.79,3.98,8.05,-2.81,2.61,-1.69,-0.17,-0.6,-0.01,3801,2019-04-03 15:48:58:089
-1.79,3.98,8.05,-2.81,2.61,-1.69,-0.17,-0.6,-0.01,3806,2019-04-03 15:48:58:094
6.34,-0.17,11.47,4.79,-1.47,1.34,0.29,0.32,0.17,3812,2019-04-03 15:48:58:100
6.34,-0.17,11.47,4.79,-1.47,1.34,0.29,0.32,0.17,3816,2019-04-03 15:48:58:104
6.34,-0.17,11.47,4.79,-1.47,1.34,0.29,0.32,0.17,3821,2019-04-03 15:48:58:109
6.34,-0.17,11.47,4.79,-1.47,1.34,0.29,0.32,0.17,3826,2019-04-03 15:48:58:114
6.34,-0.17,11.47,4.79,-1.47,1.34,0.29,0.32,0.17,3831,2019-04-03 15:48:58:119
6.34,-0.17,11.47,4.79,-1.47,1.34,0.29,0.32,0.17,3836,2019-04-03 15:48:58:124
-6.19,5.53,12.77,-6.98,4.18,2.76,0.02,0.44,0.14,3841,2019-04-03 15:48:58:129
-6.19,5.53,12.77,-6.98,4.18,2.76,0.02,0.44,0.14,3846,2019-04-03 15:48:58:134
-6.19,5.53,12.77,-6.98,4.18,2.76,-0.34,-0.13,-0.13,3851,2019-04-03 15:48:58:139
-6.19,5.53,12.77,-13.12,5.44,-8.24,-0.34,-0.13,-0.13,3856,2019-04-03 15:48:58:144
-6.19,5.53,12.77,-13.12,5.44,-8.24,-0.34,-0.13,-0.13,3861,2019-04-03 15:48:58:149
-6.19,5.53,12.77,-13.12,5.44,-8.24,-0.34,-0.13,-0.13,3866,2019-04-03 15:48:58:154
8.97,-4.81,13.4,8.6,-5.35,2.23,0.58,0.74,-0.09,3871,2019-04-03 15:48:58:159
8.97,-4.81,13.4,8.6,-5.35,2.23,0.58,0.74,-0.09,3876,2019-04-03 15:48:58:164
8.97,-4.81,13.4,8.6,-5.35,2.23,0.58,0.74,-0.09,3881,2019-04-03 15:48:58:169
8.97,-4.81,13.4,8.6,-5.35,2.23,0.58,0.74,-0.09,3886,2019-04-03 15:48:58:174
-21.65,9.9,0.19,-20.81,8.93,-10.27,0.17,-0.09,-0.31,3891,2019-04-03 15:48:58:179
-21.65,9.9,0.19,-20.81,8.93,-10.27,0.17,-0.09,-0.31,3896,2019-04-03 15:48:58:184
-21.65,9.9,0.19,-20.81,8.93,-10.27,0.17,-0.09,-0.31,3901,2019-04-03 15:48:58:189
-21.65,9.9,0.19,-20.81,8.93,-10.27,0.17,-0.09,-0.31,3906,2019-04-03 15:48:58:194
-5.49,-8.3,19.39,-5.11,-8.29,7.04,-0.39,-1.35,-0.77,3911,2019-04-03 15:48:58:199
-5.49,-8.3,19.39,-5.11,-8.29,7.04,-0.39,-1.35,-0.77,3916,2019-04-03 15:48:58:204
-5.49,-8.3,19.39,-5.11,-8.29,7.04,-0.39,-1.35,-0.77,3921,2019-04-03 15:48:58:209
-5.49,-8.3,19.39,-5.11,-8.29,7.04,-0.39,-1.35,-0.77,3926,2019-04-03 15:48:58:214
22.84,3.08,18.96,22.73,1.73,6.84,1.08,1.36,-0.46,3931,2019-04-03 15:48:58:219
22.84,3.08,18.96,22.73,1.73,6.84,1.08,1.36,-0.46,3935,2019-04-03 15:48:58:223
22.84,3.08,18.96,22.73,1.73,6.84,1.08,1.36,-0.46,3941,2019-04-03 15:48:58:229
22.84,3.08,18.96,22.73,1.73,6.84,1.08,1.36,-0.46,3948,2019-04-03 15:48:58:236
0.9,8.76,6.63,2.12,7.39,-5.1,-1.05,0.5,-0.49,3951,2019-04-03 15:48:58:239
0.9,8.76,6.63,2.12,7.39,-5.1,-1.05,0.5,-0.49,3956,2019-04-03 15:48:58:244
0.9,8.76,6.63,2.12,7.39,-5.1,-1.05,0.5,-0.49,3961,2019-04-03 15:48:58:249
0.9,8.76,6.63,2.12,7.39,-5.1,-1.05,0.5,-0.49,3966,2019-04-03 15:48:58:254
-12.43,-11.79,18.51,-11.66,-12.04,5.78,0.25,-1.11,-0.69,3972,2019-04-03 15:48:58:260
-12.43,-11.79,18.51,-11.66,-12.04,5.78,0.25,-1.11,-0.69,3976,2019-04-03 15:48:58:264
-12.43,-11.79,18.51,-11.66,-12.04,5.78,0.25,-1.11,-0.69,3980,2019-04-03 15:48:58:268
-12.43,-11.79,18.51,-11.66,-12.04,5.78,0.25,-1.11,-0.69,3985,2019-04-03 15:48:58:273
6.0,9.95,4.95,6.61,8.73,-7.52,0.67,-0.35,-0.6,3991,2019-04-03 15:48:58:279
6.0,9.95,4.95,6.61,8.73,-7.52,0.67,-0.35,-0.6,3996,2019-04-03 15:48:58:284
6.0,9.95,4.95,6.61,8.73,-7.52,0.67,-0.35,-0.6,4001,2019-04-03 15:48:58:289
6.0,9.95,4.95,6.61,8.73,-7.52,0.67,-0.35,-0.6,4006,2019-04-03 15:48:58:294
6.0,9.95,4.95,6.61,8.73,-7.52,0.67,-0.35,-0.6,4011,2019-04-03 15:48:58:299
6.0,9.95,4.95,6.61,8.73,-7.52,0.67,-0.35,-0.6,4016,2019-04-03 15:48:58:304
4.06,9.21,8.01,4.99,8.24,-4.24,-1.23,0.49,-0.29,4022,2019-04-03 15:48:58:310
4.06,9.21,8.01,4.99,8.24,-4.24,-1.23,0.49,-0.29,4026,2019-04-03 15:48:58:314
4.06,9.21,8.01,4.99,8.24,-4.24,0.53,-0.38,-0.44,4031,2019-04-03 15:48:58:319
-7.27,3.71,8.86,-7.05,2.44,-2.87,0.53,-0.38,-0.44,4037,2019-04-03 15:48:58:325
-7.27,3.71,8.86,-7.05,2.44,-2.87,0.53,-0.38,-0.44,4044,2019-04-03 15:48:58:332
-7.27,3.71,8.86,-7.05,2.44,-2.87,0.53,-0.38,-0.44,4046,2019-04-03 15:48:58:334
-7.27,3.71,8.86,-7.05,2.44,-2.87,0.53,-0.38,-0.44,4051,2019-04-03 15:48:58:339
5.6,7.82,2.22,5.7,6.03,-9.0,0.26,0.52,-0.16,4056,2019-04-03 15:48:58:344
5.6,7.82,2.22,5.7,6.03,-9.0,0.26,0.52,-0.16,4061,2019-04-03 15:48:58:349
5.6,7.82,2.22,5.7,6.03,-9.0,0.26,0.52,-0.16,4066,2019-04-03 15:48:58:354
-7.83,-7.76,8.55,-8.18,-8.37,-3.01,-0.9,-0.45,-0.33,4071,2019-04-03 15:48:58:359
-7.83,-7.76,8.55,-8.18,-8.37,-3.01,-0.9,-0.45,-0.33,4076,2019-04-03 15:48:58:364
-7.83,-7.76,8.55,-8.18,-8.37,-3.01,-0.9,-0.45,-0.33,4081,2019-04-03 15:48:58:369
-7.83,-7.76,8.55,-8.18,-8.37,-3.01,-0.9,-0.45,-0.33,4085,2019-04-03 15:48:58:373
-7.83,-7.76,8.55,-8.18,-8.37,-3.01,-0.9,-0.45,-0.33,4091,2019-04-03 15:48:58:379
-7.83,-7.76,8.55,-8.18,-8.37,-3.01,-0.9,-0.45,-0.33,4096,2019-04-03 15:48:58:384
7.12,-16.69,15.05,5.3,-15.96,2.51,0.78,0.23,-0.26,4101,2019-04-03 15:48:58:389
7.12,-16.69,15.05,5.3,-15.96,2.51,0.78,0.23,-0.26,4106,2019-04-03 15:48:58:394
6.44,4.89,17.07,3.91,4.88,5.43,-0.35,0.4,-0.37,4111,2019-04-03 15:48:58:399
6.44,4.89,17.07,3.91,4.88,5.43,-0.35,0.4,-0.37,4116,2019-04-03 15:48:58:404
6.44,4.89,17.07,3.91,4.88,5.43,-0.35,0.4,-0.37,4121,2019-04-03 15:48:58:409
6.44,4.89,17.07,3.91,4.88,5.43,-0.35,0.4,-0.37,4126,2019-04-03 15:48:58:414
-4.04,-9.87,15.17,3.91,4.88,5.43,0.01,-0.43,-0.21,4131,2019-04-03 15:48:58:419
-4.04,-9.87,15.17,-5.26,-9.23,3.73,0.01,-0.43,-0.21,4136,2019-04-03 15:48:58:424
-4.04,-9.87,15.17,-5.26,-9.23,3.73,0.01,-0.43,-0.21,4141,2019-04-03 15:48:58:429
-4.04,-9.87,15.17,-5.26,-9.23,3.73,0.01,-0.43,-0.21,4146,2019-04-03 15:48:58:434
0.63,10.34,8.34,-1.21,10.23,-3.32,0.31,-0.15,0.02,4151,2019-04-03 15:48:58:439
0.63,10.34,8.34,-1.21,10.23,-3.32,0.31,-0.15,0.02,4156,2019-04-03 15:48:58:444
0.63,10.34,8.34,-1.21,10.23,-3.32,0.31,-0.15,0.02,4161,2019-04-03 15:48:58:449
0.63,10.34,8.34,-1.21,10.23,-3.32,0.31,-0.15,0.02,4166,2019-04-03 15:48:58:454
-4.89,1.14,10.75,-6.37,0.37,-0.02,-0.72,0.15,-0.01,4171,2019-04-03 15:48:58:459
-4.89,1.14,10.75,-6.37,0.37,-0.02,-0.72,0.15,-0.01,4176,2019-04-03 15:48:58:464
-4.89,1.14,10.75,-6.37,0.37,-0.02,-0.72,0.15,-0.01,4181,2019-04-03 15:48:58:469
-4.89,1.14,10.75,-6.37,0.37,-0.02,-0.72,0.15,-0.01,4186,2019-04-03 15:48:58:474
-4.89,1.14,10.75,-6.37,0.37,-0.02,-0.72,0.15,-0.01,4191,2019-04-03 15:48:58:479
-4.89,1.14,10.75,-6.37,0.37,-0.02,-0.72,0.15,-0.01,4195,2019-04-03 15:48:58:483
-4.89,-3.19,6.45,-5.97,-3.07,-4.4,0.43,-0.57,-0.37,4201,2019-04-03 15:48:58:489
-4.89,-3.19,6.45,-5.97,-3.07,-4.4,0.43,-0.57,-0.37,4206,2019-04-03 15:48:58:494
-4.89,-3.19,6.45,-5.97,-3.07,-4.4,0.43,-0.57,-0.37,4211,2019-04-03 15:48:58:499
6.24,-0.55,19.53,-5.97,-3.07,-4.4,0.04,0.27,-0.28,4216,2019-04-03 15:48:58:504
6.24,-0.55,19.53,5.07,-0.23,7.96,0.04,0.27,-0.28,4221,2019-04-03 15:48:58:509
6.24,-0.55,19.53,5.07,-0.23,7.96,0.04,0.27,-0.28,4226,2019-04-03 15:48:58:514
6.24,-0.55,19.53,5.07,-0.23,7.96,0.04,0.27,-0.28,4231,2019-04-03 15:48:58:519
0.51,6.81,-4.27,0.25,7.09,-14.52,-0.25,0.31,-0.48,4236,2019-04-03 15:48:58:524
0.51,6.81,-4.27,0.25,7.09,-14.52,-0.25,0.31,-0.48,4241,2019-04-03 15:48:58:529
0.51,6.81,-4.27,0.25,7.09,-14.52,-0.25,0.31,-0.48,4246,2019-04-03 15:48:58:534
-4.36,4.75,11.77,-5.4,4.76,1.44,0.35,-0.79,-0.63,4251,2019-04-03 15:48:58:539
-4.36,4.75,11.77,-5.4,4.76,1.44,0.35,-0.79,-0.63,4256,2019-04-03 15:48:58:544
-4.36,4.75,11.77,-5.4,4.76,1.44,0.35,-0.79,-0.63,4261,2019-04-03 15:48:58:549
-4.36,4.75,11.77,-5.4,4.76,1.44,0.35,-0.79,-0.63,4266,2019-04-03 15:48:58:554
3.05,7.94,9.53,1.85,6.02,-0.88,0.07,0.02,-0.29,4271,2019-04-03 15:48:58:559
3.05,7.94,9.53,1.85,6.02,-0.88,0.07,0.02,-0.29,4276,2019-04-03 15:48:58:564
3.05,7.94,9.53,1.85,6.02,-0.88,0.07,0.02,-0.29,4282,2019-04-03 15:48:58:570
3.05,7.94,9.53,1.85,6.02,-0.88,0.07,0.02,-0.29,4286,2019-04-03 15:48:58:574
4.4,-1.46,12.57,3.28,-4.2,2.43,-0.26,0.29,-0.14,4291,2019-04-03 15:48:58:579
4.4,-1.46,12.57,3.28,-4.2,2.43,-0.26,0.29,-0.14,4296,2019-04-03 15:48:58:584
4.4,-1.46,12.57,3.28,-4.2,2.43,-0.26,0.29,-0.14,4301,2019-04-03 15:48:58:589
4.4,-1.46,12.57,3.28,-4.2,2.43,-0.26,0.29,-0.14,4306,2019-04-03 15:48:58:594
4.83,-0.02,11.78,3.59,-2.55,1.42,0.08,0.06,-0.14,4312,2019-04-03 15:48:58:600
4.83,-0.02,11.78,3.59,-2.55,1.42,0.08,0.06,-0.14,4316,2019-04-03 15:48:58:604
4.83,-0.02,11.78,3.59,-2.55,1.42,0.08,0.06,-0.14,4322,2019-04-03 15:48:58:610
4.83,-0.02,11.78,3.59,-2.55,1.42,0.08,0.06,-0.14,4325,2019-04-03 15:48:58:613
4.83,-0.02,11.78,3.59,-2.55,1.42,0.08,0.06,-0.14,4331,2019-04-03 15:48:58:619
0.36,3.11,9.64,-0.8,0.23,-0.09,-0.09,-0.02,0.0,4336,2019-04-03 15:48:58:624
0.36,3.11,9.64,-0.8,0.23,-0.09,-0.09,-0.02,0.0,4341,2019-04-03 15:48:58:629
0.36,3.11,9.64,-0.8,0.23,-0.09,-0.09,-0.02,0.0,4346,2019-04-03 15:48:58:634
-1.79,3.56,8.53,-2.71,1.26,-1.35,-0.05,-0.07,0.11,4351,2019-04-03 15:48:58:639
-1.79,3.56,8.53,-2.71,1.26,-1.35,-0.05,-0.07,0.11,4356,2019-04-03 15:48:58:644
-1.79,3.56,8.53,-2.71,1.26,-1.35,-0.05,-0.07,0.11,4361,2019-04-03 15:48:58:649
-1.79,3.56,8.53,-2.71,1.26,-1.35,-0.05,-0.07,0.11,4366,2019-04-03 15:48:58:654
2.01,-0.17,7.89,0.36,-2.86,-1.75,0.03,-0.14,0.1,4372,2019-04-03 15:48:58:660
2.01,-0.17,7.89,0.36,-2.86,-1.75,0.03,-0.14,0.1,4376,2019-04-03 15:48:58:664
2.01,-0.17,7.89,0.36,-2.86,-1.75,0.03,-0.14,0.1,4381,2019-04-03 15:48:58:669
2.01,-0.17,7.89,0.36,-2.86,-1.75,0.03,-0.14,0.1,4386,2019-04-03 15:48:58:674
2.01,-0.17,7.89,0.36,-2.86,-1.75,0.03,-0.14,0.1,4391,2019-04-03 15:48:58:679
2.01,-0.17,7.89,0.36,-2.86,-1.75,0.03,-0.14,0.1,4396,2019-04-03 15:48:58:684
4.83,5.94,6.09,3.37,3.02,-2.98,-0.31,0.29,0.22,4401,2019-04-03 15:48:58:689
4.83,5.94,6.09,3.37,3.02,-2.98,-0.31,0.29,0.22,4406,2019-04-03 15:48:58:694
4.83,5.94,6.09,3.37,3.02,-2.98,-0.31,0.29,0.22,4411,2019-04-03 15:48:58:699
4.83,5.94,6.09,3.37,3.02,-2.98,-0.31,0.29,0.22,4416,2019-04-03 15:48:58:704
-6.2,1.53,7.65,-7.54,-1.84,-0.91,-0.11,-0.18,0.13,4421,2019-04-03 15:48:58:709
-6.2,1.53,7.65,-7.54,-1.84,-0.91,0.03,-0.25,0.08,4426,2019-04-03 15:48:58:714
-6.2,1.53,7.65,-7.54,-1.84,-0.91,0.03,-0.25,0.08,4431,2019-04-03 15:48:58:719
0.31,0.85,9.21,-1.89,-2.91,-0.95,0.03,-0.25,0.08,4436,2019-04-03 15:48:58:724
0.31,0.85,9.21,-1.89,-2.91,-0.95,0.03,-0.25,0.08,4441,2019-04-03 15:48:58:729
0.31,0.85,9.21,-1.89,-2.91,-0.95,0.03,-0.25,0.08,4447,2019-04-03 15:48:58:735
1.2,0.86,8.91,-0.04,-1.58,-0.68,-0.11,0.09,0.05,4451,2019-04-03 15:48:58:739
1.2,0.86,8.91,-0.04,-1.58,-0.68,-0.11,0.09,0.05,4456,2019-04-03 15:48:58:744
1.2,0.86,8.91,-0.04,-1.58,-0.68,-0.11,0.09,0.05,4461,2019-04-03 15:48:58:749
1.2,0.86,8.91,-0.04,-1.58,-0.68,-0.11,0.09,0.05,4465,2019-04-03 15:48:58:753
0.75,-2.2,9.39,-0.2,-3.62,0.05,-0.15,0.03,-0.01,4471,2019-04-03 15:48:58:759
0.75,-2.2,9.39,-0.2,-3.62,0.05,-0.15,0.03,-0.01,4476,2019-04-03 15:48:58:764
0.75,-2.2,9.39,-0.2,-3.62,0.05,-0.15,0.03,-0.01,4481,2019-04-03 15:48:58:769
0.75,-2.2,9.39,-0.2,-3.62,0.05,-0.15,0.03,-0.01,4486,2019-04-03 15:48:58:774
0.66,-3.35,8.51,-0.11,-4.61,-0.7,-0.01,0.16,0.0,4491,2019-04-03 15:48:58:779
0.66,-3.35,8.51,-0.11,-4.61,-0.7,-0.01,0.16,0.0,4496,2019-04-03 15:48:58:784
0.66,-3.35,8.51,-0.11,-4.61,-0.7,-0.01,0.16,0.0,4501,2019-04-03 15:48:58:789
0.66,-3.35,8.51,-0.11,-4.61,-0.7,-0.01,0.16,0.0,4506,2019-04-03 15:48:58:794
6.38,-1.82,7.07,5.45,-2.86,-1.89,-0.18,0.14,-0.01,4512,2019-04-03 15:48:58:800
6.38,-1.82,7.07,5.45,-2.86,-1.89,-0.18,0.14,-0.01,4516,2019-04-03 15:48:58:804
6.38,-1.82,7.07,5.45,-2.86,-1.89,-0.18,0.14,-0.01,4521,2019-04-03 15:48:58:809
6.38,-1.82,7.07,5.45,-2.86,-1.89,-0.18,0.14,-0.01,4526,2019-04-03 15:48:58:814
6.38,-1.82,7.07,5.45,-2.86,-1.89,-0.18,0.14,-0.01,4531,2019-04-03 15:48:58:819
1.57,1.4,2.99,0.94,0.53,-4.95,-0.01,0.45,0.0,4536,2019-04-03 15:48:58:824
1.57,1.4,2.99,0.94,0.53,-4.95,-0.01,0.45,0.0,4542,2019-04-03 15:48:58:830
1.57,1.4,2.99,0.94,0.53,-4.95,-0.01,0.45,0.0,4546,2019-04-03 15:48:58:834
-12.27,-0.37,9.79,-12.66,-0.57,2.41,-0.14,-0.38,-0.21,4551,2019-04-03 15:48:58:839
-12.27,-0.37,9.79,-12.66,-0.57,2.41,-0.14,-0.38,-0.21,4556,2019-04-03 15:48:58:844
-12.27,-0.37,9.79,-12.66,-0.57,2.41,-0.14,-0.38,-0.21,4561,2019-04-03 15:48:58:849
-12.27,-0.37,9.79,-12.66,-0.57,2.41,-0.14,-0.38,-0.21,4566,2019-04-03 15:48:58:854
7.12,7.93,12.78,6.87,7.17,5.17,0.39,-0.14,-0.39,4571,2019-04-03 15:48:58:859
7.12,7.93,12.78,6.87,7.17,5.17,0.39,-0.14,-0.39,4575,2019-04-03 15:48:58:863
7.12,7.93,12.78,6.87,7.17,5.17,0.39,-0.14,-0.39,4581,2019-04-03 15:48:58:869
7.12,7.93,12.78,6.87,7.17,5.17,0.39,-0.14,-0.39,4586,2019-04-03 15:48:58:874
7.12,7.93,12.78,6.87,7.17,5.17,0.39,-0.14,-0.39,4591,2019-04-03 15:48:58:879
7.12,7.93,12.78,6.87,7.17,5.17,0.39,-0.14,-0.39,4596,2019-04-03 15:48:58:884
5.72,3.2,13.99,5.6,2.47,5.9,-0.25,0.36,-0.45,4601,2019-04-03 15:48:58:889
5.72,3.2,13.99,5.6,2.47,5.9,-0.25,0.36,-0.45,4606,2019-04-03 15:48:58:894
5.95,5.63,2.98,5.6,2.47,5.9,-0.06,-0.22,-0.58,4611,2019-04-03 15:48:58:899
5.95,5.63,2.98,5.6,2.47,5.9,-0.06,-0.22,-0.58,4615,2019-04-03 15:48:58:903
5.95,5.63,2.98,5.6,2.47,5.9,-0.06,-0.22,-0.58,4621,2019-04-03 15:48:58:909
5.95,5.63,2.98,5.6,2.47,5.9,-0.06,-0.22,-0.58,4626,2019-04-03 15:48:58:914
4.68,-0.15,12.46,3.77,-1.01,5.09,0.19,-0.12,-0.54,4631,2019-04-03 15:48:58:919
4.68,-0.15,12.46,3.77,-1.01,5.09,0.19,-0.12,-0.54,4636,2019-04-03 15:48:58:924
4.68,-0.15,12.46,3.77,-1.01,5.09,0.19,-0.12,-0.54,4641,2019-04-03 15:48:58:929
4.68,-0.15,12.46,3.77,-1.01,5.09,0.19,-0.12,-0.54,4646,2019-04-03 15:48:58:934
7.78,4.0,18.71,6.85,3.04,10.88,-0.07,0.39,-0.31,4652,2019-04-03 15:48:58:940
7.78,4.0,18.71,6.85,3.04,10.88,-0.07,0.39,-0.31,4655,2019-04-03 15:48:58:943
7.78,4.0,18.71,6.85,3.04,10.88,-0.07,0.39,-0.31,4661,2019-04-03 15:48:58:949
7.78,4.0,18.71,6.85,3.04,10.88,-0.07,0.39,-0.31,4666,2019-04-03 15:48:58:954
7.78,4.0,18.71,6.85,3.04,10.88,-0.07,0.39,-0.31,4671,2019-04-03 15:48:58:959
7.78,4.0,18.71,6.85,3.04,10.88,-0.07,0.39,-0.31,4676,2019-04-03 15:48:58:964
1.87,-3.72,9.62,1.18,-4.52,1.47,-0.34,0.13,-0.39,4680,2019-04-03 15:48:58:968
1.87,-3.72,9.62,1.18,-4.52,1.47,-0.34,0.13,-0.39,4686,2019-04-03 15:48:58:974
0.83,-2.67,13.73,1.18,-4.52,1.47,0.34,-0.18,-0.43,4691,2019-04-03 15:48:58:979
0.83,-2.67,13.73,1.18,-4.52,1.47,0.34,-0.18,-0.43,4696,2019-04-03 15:48:58:984
0.83,-2.67,13.73,1.18,-4.52,1.47,0.34,-0.18,-0.43,4701,2019-04-03 15:48:58:989
0.83,-2.67,13.73,1.18,-4.52,1.47,0.34,-0.18,-0.43,4706,2019-04-03 15:48:58:994
0.83,-2.67,13.73,1.18,-4.52,1.47,0.34,-0.18,-0.43,4711,2019-04-03 15:48:58:999
0.83,-2.67,13.73,1.18,-4.52,1.47,0.34,-0.18,-0.43,4715,2019-04-03 15:48:59:003
-0.71,3.51,12.31,-1.13,2.33,3.2,-0.12,-0.12,-0.32,4721,2019-04-03 15:48:59:009
-0.71,3.51,12.31,-1.13,2.33,3.2,-0.12,-0.12,-0.32,4726,2019-04-03 15:48:59:014
-4.05,0.73,8.43,-4.56,-0.86,-2.18,-0.1,-0.04,-0.31,4731,2019-04-03 15:48:59:019
-4.05,0.73,8.43,-4.56,-0.86,-2.18,-0.1,-0.04,-0.31,4736,2019-04-03 15:48:59:024
-4.05,0.73,8.43,-4.56,-0.86,-2.18,-0.1,-0.04,-0.31,4741,2019-04-03 15:48:59:029
-4.05,0.73,8.43,-4.56,-0.86,-2.18,-0.1,-0.04,-0.31,4746,2019-04-03 15:48:59:034
3.35,-0.21,11.54,2.08,-1.84,0.83,0.19,0.26,-0.24,4751,2019-04-03 15:48:59:039
3.35,-0.21,11.54,2.08,-1.84,0.83,0.19,0.26,-0.24,4756,2019-04-03 15:48:59:044
3.35,-0.21,11.54,2.08,-1.84,0.83,0.19,0.26,-0.24,4762,2019-04-03 15:48:59:050
3.35,-0.21,11.54,2.08,-1.84,0.83,0.19,0.26,-0.24,4765,2019-04-03 15:48:59:053
1.42,2.7,9.23,0.27,1.71,-1.41,0.06,-0.08,-0.26,4771,2019-04-03 15:48:59:059
1.42,2.7,9.23,0.27,1.71,-1.41,0.06,-0.08,-0.26,4775,2019-04-03 15:48:59:063
1.42,2.7,9.23,0.27,1.71,-1.41,0.06,-0.08,-0.26,4781,2019-04-03 15:48:59:069
1.42,2.7,9.23,0.27,1.71,-1.41,0.06,-0.08,-0.26,4786,2019-04-03 15:48:59:074
1.42,2.7,9.23,0.27,1.71,-1.41,0.06,-0.08,-0.26,4791,2019-04-03 15:48:59:079
1.42,2.7,9.23,0.27,1.71,-1.41,0.06,-0.08,-0.26,4796,2019-04-03 15:48:59:084
-0.71,0.69,17.51,-2.04,0.18,6.37,-0.1,-0.1,-0.19,4801,2019-04-03 15:48:59:089
-0.71,0.69,17.51,-2.04,0.18,6.37,-0.1,-0.1,-0.19,4806,2019-04-03 15:48:59:094
-0.71,0.69,17.51,-2.04,0.18,6.37,-0.02,0.08,-0.21,4811,2019-04-03 15:48:59:099
-0.71,0.69,17.51,-2.04,0.18,6.37,-0.02,0.08,-0.21,4816,2019-04-03 15:48:59:104
-0.71,0.69,17.51,-2.04,0.18,6.37,-0.02,0.08,-0.21,4821,2019-04-03 15:48:59:109
-0.71,0.69,17.51,-2.04,0.18,6.37,-0.02,0.08,-0.21,4826,2019-04-03 15:48:59:114
3.31,-5.37,14.68,2.52,-5.51,2.82,0.24,-0.23,-0.19,4831,2019-04-03 15:48:59:119
3.31,-5.37,14.68,2.52,-5.51,2.82,0.24,-0.23,-0.19,4836,2019-04-03 15:48:59:124
3.31,-5.37,14.68,2.52,-5.51,2.82,0.24,-0.23,-0.19,4841,2019-04-03 15:48:59:129
3.31,-5.37,14.68,2.52,-5.51,2.82,0.24,-0.23,-0.19,4846,2019-04-03 15:48:59:134
22.55,2.75,9.15,21.71,2.87,-1.6,0.0,1.04,0.17,4851,2019-04-03 15:48:59:139
22.55,2.75,9.15,21.71,2.87,-1.6,0.0,1.04,0.17,4856,2019-04-03 15:48:59:144
22.55,2.75,9.15,21.71,2.87,-1.6,0.0,1.04,0.17,4861,2019-04-03 15:48:59:149
22.55,2.75,9.15,21.71,2.87,-1.6,0.0,1.04,0.17,4865,2019-04-03 15:48:59:153
-11.76,1.34,4.04,-12.07,1.21,-6.34,-0.22,0.06,0.06,4871,2019-04-03 15:48:59:159
-11.76,1.34,4.04,-12.07,1.21,-6.34,-0.22,0.06,0.06,4877,2019-04-03 15:48:59:165
-11.76,1.34,4.04,-12.07,1.21,-6.34,-0.22,0.06,0.06,4881,2019-04-03 15:48:59:169
-11.76,1.34,4.04,-12.07,1.21,-6.34,-0.22,0.06,0.06,4886,2019-04-03 15:48:59:174
-11.76,1.34,4.04,-12.07,1.21,-6.34,-0.22,0.06,0.06,4891,2019-04-03 15:48:59:179
-11.76,1.34,4.04,-12.07,1.21,-6.34,-0.22,0.06,0.06,4895,2019-04-03 15:48:59:183
-12.45,-0.87,11.3,-12.96,-1.05,0.63,0.34,-1.35,-0.16,4900,2019-04-03 15:48:59:188
-12.45,-0.87,11.3,-12.96,-1.05,0.63,0.34,-1.35,-0.16,4906,2019-04-03 15:48:59:194
-12.45,-0.87,11.3,-12.96,-1.05,0.63,0.34,-1.35,-0.16,4912,2019-04-03 15:48:59:200
-12.45,-0.87,11.3,-12.96,-1.05,0.63,0.34,-1.35,-0.16,4916,2019-04-03 15:48:59:204
6.95,1.68,11.93,6.28,1.68,1.09,-0.17,0.29,0.16,4922,2019-04-03 15:48:59:210
6.95,1.68,11.93,6.28,1.68,1.09,-0.17,0.29,0.16,4926,2019-04-03 15:48:59:214
3.0,-1.18,13.61,6.28,1.68,1.09,-0.06,0.58,0.17,4931,2019-04-03 15:48:59:219
3.0,-1.18,13.61,0.36,0.82,7.28,-0.06,0.58,0.17,4936,2019-04-03 15:48:59:224
3.0,-1.18,13.61,0.36,0.82,7.28,-0.06,0.58,0.17,4941,2019-04-03 15:48:59:229
3.0,-1.18,13.61,0.36,0.82,7.28,-0.06,0.58,0.17,4946,2019-04-03 15:48:59:234
-3.59,1.49,14.33,-3.72,1.38,3.29,0.04,-0.19,-0.01,4952,2019-04-03 15:48:59:240
-3.59,1.49,14.33,-3.72,1.38,3.29,0.04,-0.19,-0.01,4956,2019-04-03 15:48:59:244
-3.59,1.49,14.33,-3.72,1.38,3.29,0.04,-0.19,-0.01,4961,2019-04-03 15:48:59:249
-3.59,1.49,14.33,-3.72,1.38,3.29,0.04,-0.19,-0.01,4966,2019-04-03 15:48:59:254
3.55,1.16,15.43,3.49,1.28,3.93,-0.21,-0.01,-0.04,4971,2019-04-03 15:48:59:259
3.55,1.16,15.43,3.49,1.28,3.93,-0.21,-0.01,-0.04,4976,2019-04-03 15:48:59:264
3.55,1.16,15.43,3.49,1.28,3.93,-0.21,-0.01,-0.04,4981,2019-04-03 15:48:59:269
4.31,-5.55,10.74,3.49,1.28,3.93,-0.21,-0.14,-0.03,4987,2019-04-03 15:48:59:275
4.31,-5.55,10.74,4.0,-5.17,0.23,-0.21,-0.14,-0.03,4991,2019-04-03 15:48:59:279
4.31,-5.55,10.74,4.0,-5.17,0.23,-0.21,-0.14,-0.03,4996,2019-04-03 15:48:59:284
4.31,-5.55,10.74,4.0,-5.17,0.23,-0.21,-0.14,-0.03,5001,2019-04-03 15:48:59:289
4.31,-5.55,10.74,4.0,-5.17,0.23,-0.21,-0.14,-0.03,5006,2019-04-03 15:48:59:294
1.6,4.97,7.81,-8.66,1.73,-6.37,0.11,0.33,-0.02,5011,2019-04-03 15:48:59:299
1.6,4.97,7.81,-8.66,1.73,-6.37,0.11,0.33,-0.02,5016,2019-04-03 15:48:59:304
1.6,4.97,7.81,-8.66,1.73,-6.37,0.11,0.33,-0.02,5022,2019-04-03 15:48:59:310
1.6,4.97,7.81,-8.66,1.73,-6.37,0.11,0.33,-0.02,5026,2019-04-03 15:48:59:314
1.6,4.97,7.81,-8.66,1.73,-6.37,0.11,0.33,-0.02,5031,2019-04-03 15:48:59:319
8.25,-0.61,10.75,8.2,0.19,0.06,0.16,-0.11,-0.16,5036,2019-04-03 15:48:59:324
8.25,-0.61,10.75,8.2,0.19,0.06,0.16,-0.11,-0.16,5040,2019-04-03 15:48:59:328
8.25,-0.61,10.75,8.2,0.19,0.06,0.16,-0.11,-0.16,5045,2019-04-03 15:48:59:333
8.25,-0.61,10.75,8.2,0.19,0.06,0.16,-0.11,-0.16,5051,2019-04-03 15:48:59:339
3.29,3.29,9.17,3.54,3.55,-1.73,0.31,-0.14,-0.24,5055,2019-04-03 15:48:59:343
3.29,3.29,9.17,3.54,3.55,-1.73,0.31,-0.14,-0.24,5061,2019-04-03 15:48:59:349
3.29,3.29,9.17,3.54,3.55,-1.73,0.31,-0.14,-0.24,5066,2019-04-03 15:48:59:354
-5.85,-2.96,9.0,-5.52,-2.66,-1.64,-0.27,-0.44,-0.25,5071,2019-04-03 15:48:59:359
-5.85,-2.96,9.0,-5.52,-2.66,-1.64,-0.27,-0.44,-0.25,5076,2019-04-03 15:48:59:364
-5.85,-2.96,9.0,-5.52,-2.66,-1.64,-0.27,-0.44,-0.25,5081,2019-04-03 15:48:59:369
-5.85,-2.96,9.0,-5.52,-2.66,-1.64,-0.27,-0.44,-0.25,5085,2019-04-03 15:48:59:373
1.15,-1.29,11.28,2.04,-0.64,0.78,0.26,-0.19,-0.22,5091,2019-04-03 15:48:59:379
1.15,-1.29,11.28,2.04,-0.64,0.78,0.26,-0.19,-0.22,5096,2019-04-03 15:48:59:384
1.15,-1.29,11.28,2.04,-0.64,0.78,0.26,-0.19,-0.22,5101,2019-04-03 15:48:59:389
1.15,-1.29,11.28,2.04,-0.64,0.78,0.26,-0.19,-0.22,5106,2019-04-03 15:48:59:394
2.07,1.38,9.93,2.07,1.81,-0.2,-0.14,0.18,-0.15,5112,2019-04-03 15:48:59:400
2.07,1.38,9.93,2.07,1.81,-0.2,-0.14,0.18,-0.15,5116,2019-04-03 15:48:59:404
1.96,-1.9,10.61,0.75,0.79,1.02,-0.12,0.01,-0.19,5122,2019-04-03 15:48:59:410
1.96,-1.9,10.61,0.75,0.79,1.02,-0.12,0.01,-0.19,5126,2019-04-03 15:48:59:414
1.96,-1.9,10.61,0.75,0.79,1.02,-0.12,0.01,-0.19,5131,2019-04-03 15:48:59:419
1.96,-1.9,10.61,0.75,0.79,1.02,-0.12,0.01,-0.19,5136,2019-04-03 15:48:59:424
1.96,-1.9,10.61,0.75,0.79,1.02,-0.12,0.01,-0.19,5141,2019-04-03 15:48:59:429
1.96,-1.9,10.61,0.75,0.79,1.02,-0.12,0.01,-0.19,5146,2019-04-03 15:48:59:434
-6.45,-2.1,5.32,-6.43,-1.32,-4.2,-0.13,0.25,-0.19,5151,2019-04-03 15:48:59:439
-6.45,-2.1,5.32,-6.43,-1.32,-4.2,-0.13,0.25,-0.19,5156,2019-04-03 15:48:59:444
-6.45,-2.1,5.32,-6.43,-1.32,-4.2,-0.13,0.25,-0.19,5161,2019-04-03 15:48:59:449
-6.45,-2.1,5.32,-6.43,-1.32,-4.2,-0.13,0.25,-0.19,5166,2019-04-03 15:48:59:454
2.53,1.56,7.66,2.14,2.29,-1.24,0.09,-0.17,-0.21,5171,2019-04-03 15:48:59:459
2.53,1.56,7.66,2.14,2.29,-1.24,0.09,-0.17,-0.21,5176,2019-04-03 15:48:59:464
4.93,3.05,7.45,4.51,3.12,-1.8,-0.24,-0.19,-0.25,5181,2019-04-03 15:48:59:469
4.93,3.05,7.45,4.51,3.12,-1.8,-0.24,-0.19,-0.25,5186,2019-04-03 15:48:59:474
4.93,3.05,7.45,4.51,3.12,-1.8,-0.24,-0.19,-0.25,5191,2019-04-03 15:48:59:479
4.93,3.05,7.45,4.51,3.12,-1.8,-0.24,-0.19,-0.25,5195,2019-04-03 15:48:59:483
-0.34,6.75,7.77,-1.17,6.51,-1.67,0.29,0.13,-0.15,5201,2019-04-03 15:48:59:489
-0.34,6.75,7.77,-1.17,6.51,-1.67,0.29,0.13,-0.15,5206,2019-04-03 15:48:59:494
-0.34,6.75,7.77,-1.17,6.51,-1.67,0.29,0.13,-0.15,5211,2019-04-03 15:48:59:499
-0.34,6.75,7.77,-1.17,6.51,-1.67,0.29,0.13,-0.15,5216,2019-04-03 15:48:59:504
-0.34,6.75,7.77,-1.17,6.51,-1.67,0.29,0.13,-0.15,5221,2019-04-03 15:48:59:509
-0.34,6.75,7.77,-1.17,6.51,-1.67,0.29,0.13,-0.15,5226,2019-04-03 15:48:59:514
3.39,2.71,6.57,3.19,2.26,-2.78,-0.04,-0.19,-0.21,5231,2019-04-03 15:48:59:519
3.39,2.71,6.57,3.19,2.26,-2.78,-0.04,-0.19,-0.21,5236,2019-04-03 15:48:59:524
3.39,2.71,6.57,3.19,2.26,-2.78,-0.04,-0.11,-0.2,5240,2019-04-03 15:48:59:528
3.39,2.71,6.57,0.27,-0.51,1.34,-0.04,-0.11,-0.2,5246,2019-04-03 15:48:59:534
3.39,2.71,6.57,0.27,-0.51,1.34,-0.04,-0.11,-0.2,5251,2019-04-03 15:48:59:539
3.39,2.71,6.57,0.27,-0.51,1.34,-0.04,-0.11,-0.2,5256,2019-04-03 15:48:59:544
2.41,3.89,8.36,1.42,2.76,-1.35,0.2,-0.05,-0.19,5260,2019-04-03 15:48:59:548
2.41,3.89,8.36,1.42,2.76,-1.35,0.2,-0.05,-0.19,5266,2019-04-03 15:48:59:554
2.41,3.89,8.36,1.42,2.76,-1.35,0.2,-0.05,-0.19,5271,2019-04-03 15:48:59:559
2.41,3.89,8.36,1.42,2.76,-1.35,0.2,-0.05,-0.19,5275,2019-04-03 15:48:59:563
2.23,-1.16,9.26,1.07,-2.28,-0.33,-0.17,0.02,-0.07,5281,2019-04-03 15:48:59:569
2.23,-1.16,9.26,1.07,-2.28,-0.33,-0.17,0.02,-0.07,5285,2019-04-03 15:48:59:573
2.23,-1.16,9.26,1.07,-2.28,-0.33,-0.17,0.02,-0.07,5291,2019-04-03 15:48:59:579
2.23,-1.16,9.26,1.07,-2.28,-0.33,-0.17,0.02,-0.07,5295,2019-04-03 15:48:59:583
-0.19,0.26,7.78,-1.25,-0.89,-1.72,-0.04,0.15,-0.01,5301,2019-04-03 15:48:59:589
-0.19,0.26,7.78,-1.25,-0.89,-1.72,-0.04,0.15,-0.01,5306,2019-04-03 15:48:59:594
-0.19,0.26,7.78,-1.25,-0.89,-1.72,-0.04,0.15,-0.01,5311,2019-04-03 15:48:59:599
-0.19,0.26,7.78,-1.25,-0.89,-1.72,-0.04,0.15,-0.01,5316,2019-04-03 15:48:59:604
-1.68,1.63,11.09,-2.89,0.25,1.42,0.08,0.14,0.04,5321,2019-04-03 15:48:59:609
-1.68,1.63,11.09,-2.89,0.25,1.42,0.08,0.14,0.04,5325,2019-04-03 15:48:59:613
-1.68,1.63,11.09,-2.89,0.25,1.42,0.08,0.14,0.04,5332,2019-04-03 15:48:59:620
-1.68,1.63,11.09,-2.89,0.25,1.42,0.08,0.14,0.04,5336,2019-04-03 15:48:59:624
-1.68,1.63,11.09,-2.89,0.25,1.42,0.08,0.14,0.04,5341,2019-04-03 15:48:59:629
-1.68,1.63,11.09,-2.89,0.25,1.42,0.08,0.14,0.04,5346,2019-04-03 15:48:59:634
3.87,0.62,13.59,2.25,-0.97,3.62,-0.18,-0.29,0.0,5351,2019-04-03 15:48:59:639
3.87,0.62,13.59,2.25,-0.97,3.62,-0.18,-0.29,0.0,5356,2019-04-03 15:48:59:644
3.87,0.62,13.59,2.25,-0.97,3.62,-0.18,-0.29,0.0,5362,2019-04-03 15:48:59:650
3.87,0.62,13.59,2.25,-0.97,3.62,-0.18,-0.29,0.0,5366,2019-04-03 15:48:59:654
-0.8,1.23,11.02,-1.74,-0.56,0.99,-0.04,0.0,0.01,5371,2019-04-03 15:48:59:659
-0.8,1.23,11.02,-1.74,-0.56,0.99,-0.04,0.0,0.01,5375,2019-04-03 15:48:59:663
-0.8,1.23,11.02,-1.74,-0.56,0.99,-0.04,0.0,0.01,5381,2019-04-03 15:48:59:669
-3.43,0.95,1.05,3.3,-0.82,-3.89,0.0,-0.1,-0.07,5386,2019-04-03 15:48:59:674
-3.43,0.95,1.05,3.3,-0.82,-3.89,0.0,-0.1,-0.07,5391,2019-04-03 15:48:59:679
-3.43,0.95,1.05,3.3,-0.82,-3.89,0.0,-0.1,-0.07,5396,2019-04-03 15:48:59:684
0.41,1.88,3.94,-0.77,0.16,-4.96,0.09,0.1,-0.03,5401,2019-04-03 15:48:59:689
0.41,1.88,3.94,-0.77,0.16,-4.96,0.09,0.1,-0.03,5406,2019-04-03 15:48:59:694
0.41,1.88,3.94,-0.77,0.16,-4.96,0.09,0.1,-0.03,5412,2019-04-03 15:48:59:700
0.41,1.88,3.94,-0.77,0.16,-4.96,0.09,0.1,-0.03,5416,2019-04-03 15:48:59:704
-2.8,1.44,8.33,-3.91,-0.24,-0.69,-0.01,0.28,0.02,5421,2019-04-03 15:48:59:709
-2.8,1.44,8.33,-3.91,-0.24,-0.69,-0.01,0.28,0.02,5426,2019-04-03 15:48:59:714
-2.8,1.44,8.33,-3.91,-0.24,-0.69,-0.01,0.28,0.02,5431,2019-04-03 15:48:59:719
-2.8,1.44,8.33,-3.91,-0.24,-0.69,-0.01,0.28,0.02,5436,2019-04-03 15:48:59:724
1.85,1.2,11.94,0.44,-0.33,2.69,-0.08,-0.13,0.0,5441,2019-04-03 15:48:59:729
1.85,1.2,11.94,0.44,-0.33,2.69,-0.08,-0.13,0.0,5446,2019-04-03 15:48:59:734
1.85,1.2,11.94,0.44,-0.33,2.69,-0.08,-0.13,0.0,5451,2019-04-03 15:48:59:739
1.85,1.2,11.94,0.44,-0.33,2.69,-0.08,-0.13,0.0,5456,2019-04-03 15:48:59:744
1.85,1.2,11.94,0.44,-0.33,2.69,-0.08,-0.13,0.0,5462,2019-04-03 15:48:59:750
1.85,1.2,11.94,0.44,-0.33,2.69,-0.08,-0.13,0.0,5466,2019-04-03 15:48:59:754
-1.74,4.4,8.56,-2.77,2.7,-0.61,0.12,0.07,0.01,5471,2019-04-03 15:48:59:759
-1.74,4.4,8.56,-2.77,2.7,-0.61,0.12,0.07,0.01,5476,2019-04-03 15:48:59:764
-1.74,4.4,8.56,-1.35,4.2,-0.83,-0.04,0.08,0.01,5481,2019-04-03 15:48:59:769
-1.74,4.4,8.56,-1.35,4.2,-0.83,-0.04,0.08,0.01,5486,2019-04-03 15:48:59:774
-1.74,4.4,8.56,-1.35,4.2,-0.83,-0.04,0.08,0.01,5491,2019-04-03 15:48:59:779
-1.74,4.4,8.56,-1.35,4.2,-0.83,-0.04,0.08,0.01,5496,2019-04-03 15:48:59:784
3.73,1.42,6.28,3.09,-0.89,-2.69,-0.05,-0.17,-0.04,5501,2019-04-03 15:48:59:789
3.73,1.42,6.28,3.09,-0.89,-2.69,-0.05,-0.17,-0.04,5506,2019-04-03 15:48:59:794
3.73,1.42,6.28,3.09,-0.89,-2.69,-0.05,-0.17,-0.04,5512,2019-04-03 15:48:59:800
-1.93,3.29,6.13,3.09,-0.89,-2.69,0.06,0.07,0.01,5517,2019-04-03 15:48:59:805
-1.93,3.29,6.13,-1.98,0.81,-2.51,0.06,0.07,0.01,5521,2019-04-03 15:48:59:809
-1.93,3.29,6.13,-1.98,0.81,-2.51,0.06,0.07,0.01,5526,2019-04-03 15:48:59:814
-1.93,3.29,6.13,-1.98,0.81,-2.51,0.06,0.07,0.01,5531,2019-04-03 15:48:59:819
-1.93,3.29,6.13,-1.98,0.81,-2.51,0.06,0.07,0.01,5536,2019-04-03 15:48:59:824
-1.93,3.29,6.13,-1.98,0.81,-2.51,0.06,0.07,0.01,5541,2019-04-03 15:48:59:829
-1.93,3.29,6.13,-1.98,0.81,-2.51,0.06,0.07,0.01,5546,2019-04-03 15:48:59:834
5.33,-0.89,-1.62,4.93,-3.42,-8.96,0.05,-0.12,-0.03,5551,2019-04-03 15:48:59:839
5.33,-0.89,-1.62,4.93,-3.42,-8.96,0.05,-0.12,-0.03,5556,2019-04-03 15:48:59:844
5.33,-0.89,-1.62,4.93,-3.42,-8.96,0.05,-0.12,-0.03,5562,2019-04-03 15:48:59:850
5.33,-0.89,-1.62,4.93,-3.42,-8.96,0.05,-0.12,-0.03,5566,2019-04-03 15:48:59:854
4.09,-1.37,16.32,3.28,-3.54,8.89,0.04,-0.16,0.0,5571,2019-04-03 15:48:59:859
4.09,-1.37,16.32,3.28,-3.54,8.89,0.04,-0.16,0.0,5575,2019-04-03 15:48:59:863
4.09,-1.37,16.32,3.28,-3.54,8.89,0.04,-0.16,0.0,5580,2019-04-03 15:48:59:868
4.09,-1.37,16.32,3.28,-3.54,8.89,0.04,-0.16,0.0,5586,2019-04-03 15:48:59:874
1.93,7.24,4.27,1.56,5.06,-3.34,0.21,-0.1,0.0,5591,2019-04-03 15:48:59:879
1.93,7.24,4.27,1.56,5.06,-3.34,0.21,-0.1,0.0,5596,2019-04-03 15:48:59:884
-2.97,-9.58,9.08,1.56,5.06,-3.34,-0.43,0.27,0.12,5603,2019-04-03 15:48:59:891
-2.97,-9.58,9.08,1.56,5.06,-3.34,-0.43,0.27,0.12,5613,2019-04-03 15:48:59:901
-2.97,-9.58,9.08,1.56,5.06,-3.34,-0.43,0.27,0.12,5614,2019-04-03 15:48:59:902
-0.67,4.69,15.16,-0.98,3.45,5.78,0.05,0.09,0.11,5630,2019-04-03 15:48:59:918
-0.67,4.69,15.16,-0.98,3.45,5.78,0.05,0.09,0.11,5633,2019-04-03 15:48:59:921
-0.67,4.69,15.16,-0.98,3.45,5.78,0.05,0.09,0.11,5633,2019-04-03 15:48:59:921
-0.67,4.69,15.16,-0.98,3.45,5.78,0.05,0.09,0.11,5634,2019-04-03 15:48:59:922
-0.67,4.69,15.16,-0.98,3.45,5.78,0.05,0.09,0.11,5635,2019-04-03 15:48:59:923
-0.67,4.69,15.16,-0.98,3.45,5.78,0.05,0.09,0.11,5641,2019-04-03 15:48:59:929
-0.67,4.69,15.16,-0.98,3.45,5.78,0.05,0.09,0.11,5649,2019-04-03 15:48:59:937
-0.07,-0.52,18.57,-0.31,-1.35,8.6,0.06,0.03,0.09,5653,2019-04-03 15:48:59:941
-0.07,-0.52,18.57,-0.31,-1.35,8.6,0.06,0.03,0.09,5659,2019-04-03 15:48:59:947
-0.07,-0.52,18.57,-0.31,-1.35,8.6,0.06,0.03,0.09,5660,2019-04-03 15:48:59:948
-0.07,-0.52,18.57,-0.31,-1.35,8.6,0.06,0.03,0.09,5667,2019-04-03 15:48:59:955
5.85,-2.96,10.61,5.33,-2.91,0.29,-0.34,-0.16,0.05,5671,2019-04-03 15:48:59:959
5.85,-2.96,10.61,5.33,-2.91,0.29,-0.34,-0.16,0.05,5676,2019-04-03 15:48:59:964
5.85,-2.96,10.61,5.33,-2.91,0.29,-0.34,-0.16,0.05,5681,2019-04-03 15:48:59:969
5.85,-2.96,10.61,5.33,-2.91,0.29,-0.34,-0.16,0.05,5685,2019-04-03 15:48:59:973
7.28,4.6,16.53,7.0,4.5,6.04,0.02,-0.23,-0.07,5691,2019-04-03 15:48:59:979
7.28,4.6,16.53,7.0,4.5,6.04,0.02,-0.23,-0.07,5696,2019-04-03 15:48:59:984
3.06,2.12,12.38,-3.09,5.34,-2.05,0.17,0.38,-0.04,5701,2019-04-03 15:48:59:989
3.06,2.12,12.38,-3.09,5.34,-2.05,0.17,0.38,-0.04,5707,2019-04-03 15:48:59:995
3.06,2.12,12.38,-3.09,5.34,-2.05,0.17,0.38,-0.04,5712,2019-04-03 15:49:00:000
3.06,2.12,12.38,-3.09,5.34,-2.05,0.17,0.38,-0.04,5717,2019-04-03 15:49:00:005
-3.43,3.59,8.66,-3.39,3.51,-2.2,-0.15,0.06,-0.19,5721,2019-04-03 15:49:00:009
-3.43,3.59,8.66,-3.39,3.51,-2.2,-0.15,0.06,-0.19,5725,2019-04-03 15:49:00:013
-3.43,3.59,8.66,-3.39,3.51,-2.2,-0.15,0.06,-0.19,5731,2019-04-03 15:49:00:019
-3.43,3.59,8.66,-3.39,3.51,-2.2,-0.15,0.06,-0.19,5736,2019-04-03 15:49:00:024
10.11,3.2,17.62,10.06,3.07,5.32,0.0,-0.7,-0.33,5740,2019-04-03 15:49:00:028
10.11,3.2,17.62,10.06,3.07,5.32,0.0,-0.7,-0.33,5746,2019-04-03 15:49:00:034
11.95,8.57,12.46,10.06,3.07,5.32,0.14,-0.36,-0.26,5751,2019-04-03 15:49:00:039
11.95,8.57,12.46,2.35,3.51,0.01,0.14,-0.36,-0.26,5757,2019-04-03 15:49:00:045
11.95,8.57,12.46,2.35,3.51,0.01,0.14,-0.36,-0.26,5761,2019-04-03 15:49:00:049
11.95,8.57,12.46,2.35,3.51,0.01,0.14,-0.36,-0.26,5769,2019-04-03 15:49:00:057
11.95,8.57,12.46,2.35,3.51,0.01,0.14,-0.36,-0.26,5771,2019-04-03 15:49:00:059
11.95,8.57,12.46,2.35,3.51,0.01,0.14,-0.36,-0.26,5776,2019-04-03 15:49:00:064
-2.0,1.54,13.76,-1.84,0.75,1.32,-0.16,0.72,0.02,5782,2019-04-03 15:49:00:070
-2.0,1.54,13.76,-1.84,0.75,1.32,-0.16,0.72,0.02,5786,2019-04-03 15:49:00:074
-2.0,1.54,13.76,-1.84,0.75,1.32,-0.16,0.72,0.02,5791,2019-04-03 15:49:00:079
-2.0,1.54,13.76,-1.84,0.75,1.32,-0.16,0.72,0.02,5796,2019-04-03 15:49:00:084
-9.6,8.33,-2.53,-9.67,5.69,-13.7,0.21,0.69,0.12,5803,2019-04-03 15:49:00:091
-9.6,8.33,-2.53,-9.67,5.69,-13.7,0.21,0.69,0.12,5806,2019-04-03 15:49:00:094
-9.6,8.33,-2.53,-9.67,5.69,-13.7,0.21,0.69,0.12,5812,2019-04-03 15:49:00:100
14.05,-3.2,27.25,13.21,-5.29,16.02,0.06,-0.76,-0.06,5817,2019-04-03 15:49:00:105
14.05,-3.2,27.25,13.21,-5.29,16.02,0.06,-0.76,-0.06,5822,2019-04-03 15:49:00:110
14.05,-3.2,27.25,13.21,-5.29,16.02,0.06,-0.76,-0.06,5826,2019-04-03 15:49:00:114
14.05,-3.2,27.25,13.21,-5.29,16.02,0.06,-0.76,-0.06,5831,2019-04-03 15:49:00:119
14.05,-3.2,27.25,13.21,-5.29,16.02,0.06,-0.76,-0.06,5836,2019-04-03 15:49:00:124
-0.34,-1.57,-0.04,-0.74,-3.29,-9.76,-0.34,0.16,0.11,5841,2019-04-03 15:49:00:129
-0.34,-1.57,-0.04,-0.74,-3.29,-9.76,-0.34,0.16,0.11,5846,2019-04-03 15:49:00:134
-0.34,-1.57,-0.04,-0.74,-3.29,-9.76,-0.34,0.16,0.11,5851,2019-04-03 15:49:00:139
-0.34,-1.57,-0.04,-0.74,-3.29,-9.76,-0.34,0.16,0.11,5855,2019-04-03 15:49:00:143
5.77,-2.69,31.14,5.57,-5.1,20.85,-0.12,-0.47,0.02,5861,2019-04-03 15:49:00:149
5.77,-2.69,31.14,5.57,-5.1,20.85,-0.12,-0.47,0.02,5868,2019-04-03 15:49:00:156
5.77,-2.69,31.14,5.57,-5.1,20.85,-0.12,-0.47,0.02,5874,2019-04-03 15:49:00:162
5.77,-2.69,31.14,5.57,-5.1,20.85,-0.12,-0.47,0.02,5875,2019-04-03 15:49:00:163
4.92,-2.31,10.54,4.59,-3.86,0.32,0.33,0.26,0.16,5881,2019-04-03 15:49:00:169
4.92,-2.31,10.54,4.59,-3.86,0.32,0.33,0.26,0.16,5886,2019-04-03 15:49:00:174
4.92,-2.31,10.54,4.59,-3.86,0.32,0.29,0.0,0.0,5892,2019-04-03 15:49:00:180
4.92,-2.31,10.54,4.59,-3.86,0.32,0.29,0.0,0.0,5898,2019-04-03 15:49:00:186
4.92,-2.31,10.54,4.59,-3.86,0.32,0.29,0.0,0.0,5901,2019-04-03 15:49:00:189
4.92,-2.31,10.54,4.59,-3.86,0.32,0.29,0.0,0.0,5906,2019-04-03 15:49:00:194
4.92,-2.31,10.54,4.59,-3.86,0.32,0.29,0.0,0.0,5913,2019-04-03 15:49:00:201
4.92,-2.31,10.54,4.59,-3.86,0.32,0.29,0.0,0.0,5916,2019-04-03 15:49:00:204
4.92,-2.31,10.54,4.59,-3.86,0.32,0.29,0.0,0.0,5921,2019-04-03 15:49:00:209
4.92,-2.31,10.54,4.59,-3.86,0.32,0.29,0.0,0.0,5926,2019-04-03 15:49:00:214
5.96,0.13,16.21,4.49,-0.63,6.13,-0.02,-0.93,0.0,5931,2019-04-03 15:49:00:219
5.96,0.13,16.21,4.49,-0.63,6.13,-0.02,-0.93,0.0,5936,2019-04-03 15:49:00:224
5.96,0.13,16.21,4.49,-0.63,6.13,-0.02,-0.93,0.0,5941,2019-04-03 15:49:00:229
5.96,0.13,16.21,4.49,-0.63,6.13,-0.02,-0.93,0.0,5946,2019-04-03 15:49:00:234
-0.76,-5.93,12.66,-1.53,-5.9,2.61,-0.35,0.52,0.19,5951,2019-04-03 15:49:00:239
-0.76,-5.93,12.66,-1.53,-5.9,2.61,-0.35,0.52,0.19,5956,2019-04-03 15:49:00:244
-0.76,-5.93,12.66,-1.53,-5.9,2.61,-0.35,0.52,0.19,5961,2019-04-03 15:49:00:249
-0.76,-5.93,12.66,-1.53,-5.9,2.61,-0.35,0.52,0.19,5966,2019-04-03 15:49:00:254
-0.76,-5.93,12.66,-1.53,-5.9,2.61,-0.35,0.52,0.19,5971,2019-04-03 15:49:00:259
-0.76,-5.93,12.66,-1.53,-5.9,2.61,-0.35,0.52,0.19,5975,2019-04-03 15:49:00:263
-0.76,-5.93,12.66,-1.53,-5.9,2.61,-0.35,0.52,0.19,5982,2019-04-03 15:49:00:270
-0.76,-5.93,3.69,-5.68,1.58,-5.96,0.19,0.3,0.05,5986,2019-04-03 15:49:00:274
-5.29,1.43,3.69,-5.68,1.58,-5.96,0.19,0.3,0.05,5999,2019-04-03 15:49:00:287
-5.29,1.43,3.69,-5.68,1.58,-5.96,0.19,0.3,0.05,6000,2019-04-03 15:49:00:288
-5.29,1.43,3.69,-5.68,1.58,-5.96,0.19,0.3,0.05,6001,2019-04-03 15:49:00:289
-5.29,1.43,3.69,-5.68,1.58,-5.96,0.19,0.3,0.05,6018,2019-04-03 15:49:00:306
-5.29,1.43,3.69,-5.68,1.58,-5.96,0.19,0.3,0.05,6020,2019-04-03 15:49:00:308
-5.29,1.43,3.69,-5.68,1.58,-5.96,0.19,0.3,0.05,6021,2019-04-03 15:49:00:309
-5.29,1.43,3.69,-5.68,1.58,-5.96,0.19,0.3,0.05,6021,2019-04-03 15:49:00:309
-6.43,-2.51,10.14,-5.52,-0.87,0.2,-0.06,0.03,0.0,6027,2019-04-03 15:49:00:315
-7.58,-3.13,7.13,-7.1,-1.8,-3.7,0.09,-0.05,-0.02,6034,2019-04-03 15:49:00:322
-7.58,-3.13,7.13,-7.1,-1.8,-3.7,0.09,-0.05,-0.02,6037,2019-04-03 15:49:00:325
-7.58,-3.13,7.13,-7.1,-1.8,-3.7,0.09,-0.05,-0.02,6046,2019-04-03 15:49:00:334
-7.58,-3.13,7.13,-7.1,-1.8,-3.7,0.09,-0.05,-0.02,6049,2019-04-03 15:49:00:337
8.15,-0.18,9.14,8.02,1.35,-0.65,0.04,-0.48,-0.13,6050,2019-04-03 15:49:00:338
8.15,-0.18,9.14,8.02,1.35,-0.65,0.04,-0.48,-0.13,6056,2019-04-03 15:49:00:344
8.15,-0.18,9.14,8.02,1.35,-0.65,0.04,-0.48,-0.13,6062,2019-04-03 15:49:00:350
8.15,-0.18,9.14,8.02,1.35,-0.65,0.04,-0.48,-0.13,6066,2019-04-03 15:49:00:354
8.15,-0.18,9.14,8.02,1.35,-0.65,0.04,-0.48,-0.13,6071,2019-04-03 15:49:00:359
8.15,-0.18,9.14,8.02,1.35,-0.65,0.04,-0.48,-0.13,6076,2019-04-03 15:49:00:364
-4.12,-4.31,10.52,-4.13,-3.12,0.9,-0.03,0.31,0.04,6083,2019-04-03 15:49:00:371
-4.12,-4.31,10.52,-4.13,-3.12,0.9,-0.03,0.31,0.04,6086,2019-04-03 15:49:00:374
-4.12,-4.31,10.52,-4.13,-3.12,0.9,-0.03,0.31,0.04,6091,2019-04-03 15:49:00:379
-4.12,-4.31,10.52,-4.13,-3.12,0.9,-0.03,0.31,0.04,6096,2019-04-03 15:49:00:384
-4.12,-4.31,10.52,-4.13,-3.12,0.9,-0.03,0.31,0.04,6101,2019-04-03 15:49:00:389
5.75,6.88,2.4,5.08,6.91,-7.22,0.41,-0.34,-0.04,6106,2019-04-03 15:49:00:394
5.75,6.88,2.4,5.08,6.91,-7.22,0.41,-0.34,-0.04,6111,2019-04-03 15:49:00:399
5.75,6.88,2.4,5.08,6.91,-7.22,0.41,-0.34,-0.04,6116,2019-04-03 15:49:00:404
5.75,6.88,2.4,5.08,6.91,-7.22,0.41,-0.34,-0.04,6121,2019-04-03 15:49:00:409
7.41,1.04,10.29,6.9,0.96,1.89,0.08,0.09,0.46,6128,2019-04-03 15:49:00:416
7.41,1.04,10.29,6.9,0.96,1.89,0.08,0.09,0.46,6131,2019-04-03 15:49:00:419
7.41,1.04,10.29,6.9,0.96,1.89,0.08,0.09,0.46,6135,2019-04-03 15:49:00:423
7.41,1.04,10.29,6.9,0.96,1.89,0.08,0.09,0.46,6142,2019-04-03 15:49:00:430
-22.9,1.15,-0.95,-22.73,0.73,-9.52,0.09,0.69,0.64,6146,2019-04-03 15:49:00:434
-22.9,1.15,-0.95,-22.73,0.73,-9.52,0.09,0.69,0.64,6152,2019-04-03 15:49:00:440
-22.9,1.15,-0.95,-22.73,0.73,-9.52,0.09,0.69,0.64,6155,2019-04-03 15:49:00:443
-22.9,1.15,-0.95,-22.73,0.73,-9.52,0.09,0.69,0.64,6161,2019-04-03 15:49:00:449
-22.9,1.15,-0.95,-22.73,0.73,-9.52,0.09,0.69,0.64,6167,2019-04-03 15:49:00:455
-22.9,1.15,-0.95,-22.73,0.73,-9.52,0.09,0.69,0.64,6171,2019-04-03 15:49:00:459
6.29,-6.39,12.34,5.27,-6.24,3.34,-0.24,-1.3,0.23,6176,2019-04-03 15:49:00:464
6.29,-6.39,12.34,5.27,-6.24,3.34,-0.24,-1.3,0.23,6184,2019-04-03 15:49:00:472
6.29,-6.39,12.34,5.27,-6.24,3.34,-0.24,-1.3,0.23,6189,2019-04-03 15:49:00:477
6.29,-6.39,12.34,5.27,-6.24,3.34,-0.24,-1.3,0.23,6190,2019-04-03 15:49:00:478
7.21,0.42,11.09,6.46,-0.09,2.79,0.38,-0.03,0.57,6196,2019-04-03 15:49:00:484
-9.31,1.66,14.74,-9.77,1.05,5.6,-0.12,0.71,0.7,6206,2019-04-03 15:49:00:494
-9.31,1.66,14.74,-9.77,1.05,5.6,-0.12,0.71,0.7,6217,2019-04-03 15:49:00:505
-9.31,1.66,14.74,-9.77,1.05,5.6,-0.12,0.71,0.7,6218,2019-04-03 15:49:00:506
-9.31,1.66,14.74,-9.77,1.05,5.6,-0.12,0.71,0.7,6226,2019-04-03 15:49:00:514
-5.03,-1.0,13.65,-5.78,-1.63,3.85,-0.15,-0.21,0.53,6228,2019-04-03 15:49:00:516
-5.03,-1.0,13.65,-5.78,-1.63,3.85,-0.15,-0.21,0.53,6229,2019-04-03 15:49:00:517
-5.03,-1.0,13.65,-5.78,-1.63,3.85,-0.15,-0.21,0.53,6231,2019-04-03 15:49:00:519
-5.03,-1.0,13.65,-5.78,-1.63,3.85,-0.15,-0.21,0.53,6236,2019-04-03 15:49:00:524
-5.03,-1.0,13.65,-5.78,-1.63,3.85,-0.15,-0.21,0.53,6241,2019-04-03 15:49:00:529
-5.03,-1.0,13.65,-5.78,-1.63,3.85,-0.15,-0.21,0.53,6250,2019-04-03 15:49:00:538
-5.03,-1.0,13.65,-5.78,-1.63,3.85,-0.15,-0.21,0.53,6252,2019-04-03 15:49:00:540
-5.03,-1.0,13.65,-5.78,-1.63,3.85,-0.15,-0.21,0.53,6256,2019-04-03 15:49:00:544
6.24,5.85,12.0,5.77,4.61,1.91,0.29,-0.44,0.5,6263,2019-04-03 15:49:00:551
6.24,5.85,12.0,5.77,4.61,1.91,0.29,-0.44,0.5,6265,2019-04-03 15:49:00:553
6.24,5.85,12.0,5.77,4.61,1.91,0.29,-0.44,0.5,6272,2019-04-03 15:49:00:560
6.24,5.85,12.0,5.77,4.61,1.91,0.29,-0.44,0.5,6275,2019-04-03 15:49:00:563
0.04,-1.19,11.14,-0.41,-2.49,0.97,-0.07,0.12,0.56,6281,2019-04-03 15:49:00:569
-1.28,0.04,8.73,-0.72,-0.26,-2.26,-0.11,0.07,0.39,6290,2019-04-03 15:49:00:578
-1.28,0.04,8.73,-0.72,-0.26,-2.26,-0.11,0.07,0.39,6291,2019-04-03 15:49:00:579
-1.28,0.04,8.73,-0.72,-0.26,-2.26,-0.11,0.07,0.39,6296,2019-04-03 15:49:00:584
-1.28,0.04,8.73,-0.72,-0.26,-2.26,-0.11,0.07,0.39,6301,2019-04-03 15:49:00:589
-1.28,0.04,8.73,-0.72,-0.26,-2.26,-0.11,0.07,0.39,6306,2019-04-03 15:49:00:594
-0.4,1.25,9.82,0.52,0.92,-1.14,0.12,-0.13,0.19,6311,2019-04-03 15:49:00:599
-0.4,1.25,9.82,0.52,0.92,-1.14,0.12,-0.13,0.19,6316,2019-04-03 15:49:00:604
-0.4,1.25,9.82,0.52,0.92,-1.14,0.12,-0.13,0.19,6322,2019-04-03 15:49:00:610
-0.4,1.25,9.82,0.52,0.92,-1.14,0.12,-0.13,0.19,6326,2019-04-03 15:49:00:614
-0.4,1.25,9.82,0.52,0.92,-1.14,0.12,-0.13,0.19,6331,2019-04-03 15:49:00:619
-0.4,1.25,9.82,0.52,0.92,-1.14,0.12,-0.13,0.19,6336,2019-04-03 15:49:00:624
1.27,-2.48,14.0,1.6,-2.31,2.76,-0.07,0.07,0.11,6343,2019-04-03 15:49:00:631
1.27,-2.48,14.0,1.6,-2.31,2.76,-0.07,0.07,0.11,6346,2019-04-03 15:49:00:634
-1.34,-1.43,15.72,-1.33,-1.33,4.29,-0.05,0.27,0.07,6352,2019-04-03 15:49:00:640
-1.34,-1.43,15.72,-1.33,-1.33,4.29,-0.05,0.27,0.07,6356,2019-04-03 15:49:00:644
-1.34,-1.43,15.72,-1.33,-1.33,4.29,-0.05,0.27,0.07,6363,2019-04-03 15:49:00:651
-1.34,-1.43,15.72,-1.33,-1.33,4.29,-0.05,0.27,0.07,6366,2019-04-03 15:49:00:654
-6.26,-1.16,6.6,-5.41,-1.16,-4.82,-0.14,0.08,-0.13,6371,2019-04-03 15:49:00:659
-6.26,-1.16,6.6,-5.41,-1.16,-4.82,-0.14,0.08,-0.13,6376,2019-04-03 15:49:00:664
-6.26,-1.16,6.6,-5.41,-1.16,-4.82,-0.14,0.08,-0.13,6381,2019-04-03 15:49:00:669
-6.26,-1.16,6.6,-5.41,-1.16,-4.82,-0.14,0.08,-0.13,6386,2019-04-03 15:49:00:674
-6.26,-1.16,6.6,-5.41,-1.16,-4.82,-0.14,0.08,-0.13,6391,2019-04-03 15:49:00:679
-6.26,-1.16,6.6,-5.41,-1.16,-4.82,-0.14,0.08,-0.13,6396,2019-04-03 15:49:00:684
6.32,-1.86,12.09,6.89,-1.65,0.44,-0.17,-0.47,-0.38,6401,2019-04-03 15:49:00:689
6.32,-1.86,12.09,6.89,-1.65,0.44,-0.17,-0.47,-0.38,6406,2019-04-03 15:49:00:694
6.32,-1.86,12.09,6.89,-1.65,0.44,0.11,0.24,-0.34,6411,2019-04-03 15:49:00:699
6.32,-1.86,12.09,2.0,2.28,-0.62,0.11,0.24,-0.34,6416,2019-04-03 15:49:00:704
6.32,-1.86,12.09,2.0,2.28,-0.62,0.11,0.24,-0.34,6420,2019-04-03 15:49:00:708
6.32,-1.86,12.09,2.0,2.28,-0.62,0.11,0.24,-0.34,6426,2019-04-03 15:49:00:714
0.45,4.95,1.86,1.05,4.43,-7.28,-0.02,-0.05,-0.37,6434,2019-04-03 15:49:00:722
0.45,4.95,1.86,1.05,4.43,-7.28,-0.02,-0.05,-0.37,6436,2019-04-03 15:49:00:724
0.45,4.95,1.86,1.05,4.43,-7.28,-0.02,-0.05,-0.37,6441,2019-04-03 15:49:00:729
0.45,4.95,1.86,1.05,4.43,-7.28,-0.02,-0.05,-0.37,6446,2019-04-03 15:49:00:734
4.59,0.62,22.17,5.15,0.38,12.07,-0.12,-0.21,-0.31,6454,2019-04-03 15:49:00:742
4.59,0.62,22.17,5.15,0.38,12.07,-0.12,-0.21,-0.31,6456,2019-04-03 15:49:00:744
4.59,0.62,22.17,5.15,0.38,12.07,-0.12,-0.21,-0.31,6461,2019-04-03 15:49:00:749
4.59,0.62,22.17,5.15,0.38,12.07,-0.12,-0.21,-0.31,6466,2019-04-03 15:49:00:754
4.59,0.62,22.17,5.15,0.38,12.07,-0.12,-0.21,-0.31,6470,2019-04-03 15:49:00:758
-3.01,10.34,11.45,-2.55,8.83,1.52,0.43,0.36,-0.2,6477,2019-04-03 15:49:00:765
-3.01,10.34,11.45,-2.55,8.83,1.52,0.43,0.36,-0.2,6481,2019-04-03 15:49:00:769
-3.01,10.34,11.45,-2.55,8.83,1.52,0.43,0.36,-0.2,6485,2019-04-03 15:49:00:773
-3.22,-1.54,15.45,-3.54,-2.8,3.78,-0.38,-0.12,-0.04,6493,2019-04-03 15:49:00:781
-3.22,-1.54,15.45,-3.54,-2.8,3.78,-0.38,-0.12,-0.04,6496,2019-04-03 15:49:00:784
-3.22,-1.54,15.45,-3.54,-2.8,3.78,-0.38,-0.12,-0.04,6501,2019-04-03 15:49:00:789
-3.22,-1.54,15.45,-3.54,-2.8,3.78,-0.38,-0.12,-0.04,6510,2019-04-03 15:49:00:798
4.43,4.35,12.05,3.47,2.31,0.5,-0.05,-0.42,0.06,6511,2019-04-03 15:49:00:799
4.43,4.35,12.05,3.47,2.31,0.5,-0.05,-0.42,0.06,6516,2019-04-03 15:49:00:804
4.43,4.35,12.05,3.47,2.31,0.5,-0.05,-0.42,0.06,6521,2019-04-03 15:49:00:809
4.43,4.35,12.05,3.47,2.31,0.5,-0.05,-0.42,0.06,6527,2019-04-03 15:49:00:815
13.22,-0.3,14.94,11.92,-2.65,3.31,0.16,-0.21,0.32,6531,2019-04-03 15:49:00:819
13.22,-0.3,14.94,11.92,-2.65,3.31,0.16,-0.21,0.32,6535,2019-04-03 15:49:00:823
13.22,-0.3,14.94,11.92,-2.65,3.31,0.16,-0.21,0.32,6541,2019-04-03 15:49:00:829
13.22,-0.3,14.94,11.92,-2.65,3.31,0.16,-0.21,0.32,6548,2019-04-03 15:49:00:836
-5.14,4.51,3.61,-5.75,1.94,-6.81,-0.02,0.89,0.64,6553,2019-04-03 15:49:00:841
-5.14,4.51,3.61,-5.75,1.94,-6.81,-0.02,0.89,0.64,6556,2019-04-03 15:49:00:844
-5.14,4.51,3.61,-5.75,1.94,-6.81,-0.02,0.89,0.64,6561,2019-04-03 15:49:00:849
-5.14,4.51,3.61,-5.75,1.94,-6.81,-0.02,0.89,0.64,6566,2019-04-03 15:49:00:854
-5.14,4.51,3.61,-5.75,1.94,-6.81,-0.02,0.89,0.64,6571,2019-04-03 15:49:00:859
-8.79,6.3,-5.91,-9.91,3.18,-15.82,-0.18,0.12,0.62,6579,2019-04-03 15:49:00:867
-8.79,6.3,-5.91,-9.91,3.18,-15.82,-0.18,0.12,0.62,6580,2019-04-03 15:49:00:868
18.02,-3.06,30.86,16.61,-6.6,20.43,0.09,-1.17,0.42,6603,2019-04-03 15:49:00:891
18.02,-3.06,30.86,16.61,-6.6,20.43,0.09,-1.17,0.42,6604,2019-04-03 15:49:00:892
18.02,-3.06,30.86,16.61,-6.6,20.43,0.09,-1.17,0.42,6604,2019-04-03 15:49:00:892
18.02,-3.06,30.86,16.61,-6.6,20.43,0.09,-1.17,0.42,6604,2019-04-03 15:49:00:892
18.02,-3.06,30.86,16.61,-6.6,20.43,0.09,-1.17,0.42,6606,2019-04-03 15:49:00:894
18.02,-3.06,30.86,16.61,-6.6,20.43,0.09,-1.17,0.42,6612,2019-04-03 15:49:00:900
18.02,-3.06,30.86,16.61,-6.6,20.43,0.09,-1.17,0.42,6616,2019-04-03 15:49:00:904
-5.41,2.41,4.36,-6.03,-0.66,-6.96,0.39,1.06,0.78,6621,2019-04-03 15:49:00:909
-5.41,2.41,4.36,-6.03,-0.66,-6.96,0.39,1.06,0.78,6626,2019-04-03 15:49:00:914
-5.41,2.41,4.36,-6.03,-0.66,-6.96,0.39,1.06,0.78,6630,2019-04-03 15:49:00:918
-5.47,-3.95,4.18,-6.14,-6.23,-7.58,-0.38,0.17,0.54,6637,2019-04-03 15:49:00:925
-5.47,-3.95,4.18,-6.14,-6.23,-7.58,-0.38,0.17,0.54,6641,2019-04-03 15:49:00:929
-5.47,-3.95,4.18,-6.14,-6.23,-7.58,-0.38,0.17,0.54,6646,2019-04-03 15:49:00:934
7.74,-8.51,22.41,7.25,-10.16,11.35,0.44,-0.12,0.45,6651,2019-04-03 15:49:00:939
7.74,-8.51,22.41,7.25,-10.16,11.35,0.44,-0.12,0.45,6656,2019-04-03 15:49:00:944
7.74,-8.51,22.41,7.25,-10.16,11.35,0.44,-0.12,0.45,6661,2019-04-03 15:49:00:949
7.74,-8.51,22.41,7.25,-10.16,11.35,0.44,-0.12,0.45,6666,2019-04-03 15:49:00:954
-13.24,3.0,2.6,7.25,-10.16,11.35,-0.15,0.78,0.65,6670,2019-04-03 15:49:00:958
-13.24,3.0,2.6,-13.23,3.11,-9.16,-0.15,0.78,0.65,6676,2019-04-03 15:49:00:964
-13.24,3.0,2.6,-13.23,3.11,-9.16,-0.15,0.78,0.65,6681,2019-04-03 15:49:00:969
-13.24,3.0,2.6,-13.23,3.11,-9.16,-0.15,0.78,0.65,6686,2019-04-03 15:49:00:974
7.4,-6.54,19.61,7.35,-6.65,8.38,-0.49,-0.86,0.11,6691,2019-04-03 15:49:00:979
7.4,-6.54,19.61,7.35,-6.65,8.38,-0.49,-0.86,0.11,6697,2019-04-03 15:49:00:985
7.4,-6.54,19.61,7.35,-6.65,8.38,-0.49,-0.86,0.11,6703,2019-04-03 15:49:00:991
7.4,-6.54,19.61,7.35,-6.65,8.38,-0.49,-0.86,0.11,6706,2019-04-03 15:49:00:994
6.29,6.5,11.47,7.26,6.83,0.62,0.75,0.11,0.1,6713,2019-04-03 15:49:01:001
6.29,6.5,11.47,7.26,6.83,0.62,0.75,0.11,0.1,6716,2019-04-03 15:49:01:004
6.29,6.5,11.47,7.26,6.83,0.62,0.75,0.11,0.1,6721,2019-04-03 15:49:01:009
6.29,6.5,11.47,7.26,6.83,0.62,0.75,0.11,0.1,6726,2019-04-03 15:49:01:014
-8.67,-1.67,2.7,-7.22,-0.61,-8.02,-0.5,0.82,0.24,6732,2019-04-03 15:49:01:020
-8.67,-1.67,2.7,-7.22,-0.61,-8.02,-0.5,0.82,0.24,6736,2019-04-03 15:49:01:024
-8.67,-1.67,2.7,-7.22,-0.61,-8.02,-0.5,0.82,0.24,6741,2019-04-03 15:49:01:029
-8.67,-1.67,2.7,-7.22,-0.61,-8.02,-0.5,0.82,0.24,6746,2019-04-03 15:49:01:034
-0.98,-0.79,12.13,-0.47,0.01,0.64,0.03,-0.24,0.0,6751,2019-04-03 15:49:01:039
-0.98,-0.79,12.13,-0.47,0.01,0.64,0.03,-0.24,0.0,6757,2019-04-03 15:49:01:045
-0.98,-0.79,12.13,-0.47,0.01,0.64,0.03,-0.24,0.0,6761,2019-04-03 15:49:01:049
-0.98,-0.79,12.13,-0.47,0.01,0.64,0.03,-0.24,0.0,6765,2019-04-03 15:49:01:053
-4.26,6.51,0.36,-3.26,7.4,-10.94,0.59,-0.08,0.03,6771,2019-04-03 15:49:01:059
-4.26,6.51,0.36,-3.26,7.4,-10.94,0.59,-0.08,0.03,6776,2019-04-03 15:49:01:064
-4.26,6.51,0.36,-3.26,7.4,-10.94,0.59,-0.08,0.03,6781,2019-04-03 15:49:01:069
-4.26,6.51,0.36,-3.26,7.4,-10.94,0.59,-0.08,0.03,6786,2019-04-03 15:49:01:074
5.84,-5.61,8.55,7.04,-4.13,-1.93,-0.45,-0.34,-0.04,6791,2019-04-03 15:49:01:079
5.84,-5.61,8.55,7.04,-4.13,-1.93,-0.45,-0.34,-0.04,6798,2019-04-03 15:49:01:086
5.84,-5.61,8.55,7.04,-4.13,-1.93,-0.45,-0.34,-0.04,6801,2019-04-03 15:49:01:089
5.84,-5.61,8.55,7.04,-4.13,-1.93,-0.45,-0.34,-0.04,6806,2019-04-03 15:49:01:094
-5.36,-1.52,12.75,-4.87,-0.31,2.13,0.0,0.23,0.06,6814,2019-04-03 15:49:01:102
-5.36,-1.52,12.75,-4.87,-0.31,2.13,0.0,0.23,0.06,6822,2019-04-03 15:49:01:110
-5.36,-1.52,12.75,-4.87,-0.31,2.13,0.0,0.23,0.06,6822,2019-04-03 15:49:01:110
-5.36,-1.52,12.75,-4.87,-0.31,2.13,0.0,0.23,0.06,6826,2019-04-03 15:49:01:114
0.41,2.4,13.37,0.76,3.0,2.66,0.16,-0.14,0.0,6831,2019-04-03 15:49:01:119
0.41,2.4,13.37,0.76,3.0,2.66,0.16,-0.14,0.0,6838,2019-04-03 15:49:01:126
0.41,2.4,13.37,0.76,3.0,2.66,0.16,-0.14,0.0,6840,2019-04-03 15:49:01:128
-3.83,-0.71,9.3,-3.39,-0.57,-1.21,-0.03,0.08,0.04,6846,2019-04-03 15:49:01:134
-3.83,-0.71,9.3,-3.39,-0.57,-1.21,-0.03,0.08,0.04,6851,2019-04-03 15:49:01:139
-3.83,-0.71,9.3,-3.39,-0.57,-1.21,-0.03,0.08,0.04,6858,2019-04-03 15:49:01:146
-3.83,-0.71,9.3,-3.39,-0.57,-1.21,-0.03,0.08,0.04,6861,2019-04-03 15:49:01:149
-3.83,-0.71,9.3,-3.39,-0.57,-1.21,-0.03,0.08,0.04,6866,2019-04-03 15:49:01:154
6.48,-8.09,9.15,5.82,-7.88,-0.84,0.0,-0.55,-0.01,6871,2019-04-03 15:49:01:159
6.48,-8.09,9.15,5.82,-7.88,-0.84,0.0,-0.55,-0.01,6879,2019-04-03 15:49:01:167
6.48,-8.09,9.15,5.82,-7.88,-0.84,0.0,-0.55,-0.01,6882,2019-04-03 15:49:01:170
6.48,-8.09,9.15,5.82,-7.88,-0.84,0.0,-0.55,-0.01,6885,2019-04-03 15:49:01:173
9.42,3.87,6.99,9.68,3.88,-1.67,0.29,0.07,0.04,6891,2019-04-03 15:49:01:179
9.42,3.87,6.99,9.68,3.88,-1.67,0.29,0.07,0.04,6895,2019-04-03 15:49:01:183
9.42,3.87,6.99,9.68,3.88,-1.67,0.29,0.07,0.04,6903,2019-04-03 15:49:01:191
9.42,0.65,6.35,-8.5,0.83,-2.91,0.03,0.88,0.26,6906,2019-04-03 15:49:01:194
-8.39,0.65,6.35,-8.5,0.83,-2.91,0.03,0.88,0.26,6912,2019-04-03 15:49:01:200
-8.39,0.65,6.35,-8.5,0.83,-2.91,0.03,0.88,0.26,6916,2019-04-03 15:49:01:204
-8.39,0.65,6.35,-8.5,0.83,-2.91,0.03,0.88,0.26,6921,2019-04-03 15:49:01:209
1.27,-4.7,5.28,0.48,-4.69,-3.88,-0.02,-0.29,0.12,6927,2019-04-03 15:49:01:215
1.27,-4.7,5.28,0.48,-4.69,-3.88,-0.02,-0.29,0.12,6931,2019-04-03 15:49:01:219
1.27,-4.7,5.28,0.48,-4.69,-3.88,-0.02,-0.29,0.12,6935,2019-04-03 15:49:01:223
1.27,-4.7,5.28,0.48,-4.69,-3.88,-0.02,-0.29,0.12,6943,2019-04-03 15:49:01:231
1.27,-4.7,5.28,0.48,-4.69,-3.88,-0.02,-0.29,0.12,6946,2019-04-03 15:49:01:234
1.25,3.71,8.92,0.72,4.07,-0.19,0.29,-0.1,0.23,6952,2019-04-03 15:49:01:240
1.25,3.71,8.92,0.72,4.07,-0.19,0.29,-0.1,0.23,6956,2019-04-03 15:49:01:244
1.25,3.71,8.92,0.72,4.07,-0.19,0.29,-0.1,0.23,6964,2019-04-03 15:49:01:252
-1.16,7.12,11.97,-1.78,7.58,2.11,-0.37,0.12,0.29,6966,2019-04-03 15:49:01:254
-1.16,7.12,11.97,-1.78,7.58,2.11,-0.37,0.12,0.29,6971,2019-04-03 15:49:01:259
-1.16,7.12,11.97,-1.78,7.58,2.11,-0.37,0.12,0.29,6976,2019-04-03 15:49:01:264
-1.16,7.12,11.97,-1.78,7.58,2.11,-0.37,0.12,0.29,6981,2019-04-03 15:49:01:269
-1.16,1.05,10.23,1.83,0.58,-0.59,-0.05,-0.16,0.29,6986,2019-04-03 15:49:01:274
2.55,1.05,10.23,1.83,0.58,-0.59,-0.05,-0.16,0.29,6990,2019-04-03 15:49:01:278
2.55,1.05,10.23,1.83,0.58,-0.59,-0.05,-0.16,0.29,7005,2019-04-03 15:49:01:293
2.55,1.05,10.23,1.83,0.58,-0.59,-0.05,-0.16,0.29,7006,2019-04-03 15:49:01:294
11.74,2.19,17.0,1.83,0.58,-0.59,-0.05,-0.16,0.29,7007,2019-04-03 15:49:01:295
11.74,2.19,17.0,10.52,1.73,6.43,0.15,-0.31,0.36,7012,2019-04-03 15:49:01:300
11.74,2.19,17.0,10.52,1.73,6.43,0.15,-0.31,0.36,7016,2019-04-03 15:49:01:304
11.74,2.19,17.0,10.52,1.73,6.43,0.15,-0.31,0.36,7022,2019-04-03 15:49:01:310
11.74,2.19,17.0,10.52,1.73,6.43,0.15,-0.31,0.36,7025,2019-04-03 15:49:01:313
11.74,2.19,17.0,10.52,1.73,6.43,0.15,-0.31,0.36,7031,2019-04-03 15:49:01:319
2.02,5.15,11.07,10.52,1.73,6.43,0.15,-0.31,0.36,7037,2019-04-03 15:49:01:325
2.02,5.15,11.07,1.2,4.61,0.77,-0.05,0.42,0.47,7041,2019-04-03 15:49:01:329
2.02,5.15,11.07,1.2,4.61,0.77,-0.05,0.42,0.47,7046,2019-04-03 15:49:01:334
2.02,5.15,11.07,1.2,4.61,0.77,-0.05,0.42,0.47,7051,2019-04-03 15:49:01:339
2.02,5.15,11.07,1.2,4.61,0.77,-0.05,0.42,0.47,7056,2019-04-03 15:49:01:344
-5.08,5.71,8.62,-5.72,4.58,-1.52,0.16,0.27,0.4,7061,2019-04-03 15:49:01:349
-5.08,5.71,8.62,-5.72,4.58,-1.52,0.16,0.27,0.4,7066,2019-04-03 15:49:01:354
-5.08,5.71,8.62,-3.39,-2.83,-0.53,-0.02,-0.02,0.34,7071,2019-04-03 15:49:01:359
-5.08,5.71,8.62,-3.39,-2.83,-0.53,-0.02,-0.02,0.34,7077,2019-04-03 15:49:01:365
-5.08,5.71,8.62,-3.39,-2.83,-0.53,-0.02,-0.02,0.34,7082,2019-04-03 15:49:01:370
-5.08,5.71,8.62,-3.39,-2.83,-0.53,-0.02,-0.02,0.34,7085,2019-04-03 15:49:01:373
8.22,-2.44,13.85,7.58,-3.56,2.74,0.3,-0.5,0.1,7092,2019-04-03 15:49:01:380
8.22,-2.44,13.85,7.58,-3.56,2.74,0.3,-0.5,0.1,7096,2019-04-03 15:49:01:384
8.22,-2.44,13.85,7.58,-3.56,2.74,0.3,-0.5,0.1,7101,2019-04-03 15:49:01:389
0.08,0.21,11.19,-0.13,-0.6,0.14,-0.14,0.53,0.27,7106,2019-04-03 15:49:01:394
0.08,0.21,11.19,-0.13,-0.6,0.14,-0.14,0.53,0.27,7111,2019-04-03 15:49:01:399
0.08,0.21,11.19,-0.13,-0.6,0.14,-0.14,0.53,0.27,7119,2019-04-03 15:49:01:407
0.08,0.21,11.19,-0.13,-0.6,0.14,-0.14,0.53,0.27,7127,2019-04-03 15:49:01:415
0.08,0.21,11.19,-0.13,-0.6,0.14,-0.14,0.53,0.27,7128,2019-04-03 15:49:01:416
0.08,0.21,11.19,-0.13,-0.6,0.14,-0.14,0.53,0.27,7130,2019-04-03 15:49:01:418
0.08,0.21,11.19,-0.13,-0.6,0.14,-0.14,0.53,0.27,7137,2019-04-03 15:49:01:425
0.08,0.21,11.19,-0.13,-0.6,0.14,-0.14,0.53,0.27,7140,2019-04-03 15:49:01:428
-14.81,-5.23,8.71,-14.24,-6.27,-2.56,-0.17,0.54,0.18,7146,2019-04-03 15:49:01:434
-14.81,-5.23,8.71,-14.24,-6.27,-2.56,-0.17,0.54,0.18,7151,2019-04-03 15:49:01:439
3.06,6.87,19.49,3.15,5.62,7.55,0.21,-0.76,-0.16,7158,2019-04-03 15:49:01:446
3.06,6.87,19.49,3.15,5.62,7.55,0.21,-0.76,-0.16,7161,2019-04-03 15:49:01:449
3.06,6.87,19.49,3.15,5.62,7.55,0.21,-0.76,-0.16,7166,2019-04-03 15:49:01:454
3.06,6.87,19.49,3.15,5.62,7.55,0.21,-0.76,-0.16,7171,2019-04-03 15:49:01:459
3.06,6.87,19.49,3.15,5.62,7.55,0.21,-0.76,-0.16,7178,2019-04-03 15:49:01:466
3.06,6.87,19.49,3.15,5.62,7.55,0.21,-0.76,-0.16,7180,2019-04-03 15:49:01:468
3.06,6.87,19.49,3.15,5.62,7.55,0.21,-0.76,-0.16,7186,2019-04-03 15:49:01:474
3.06,6.87,19.49,3.15,5.62,7.55,0.21,-0.76,-0.16,7192,2019-04-03 15:49:01:480
3.06,6.87,19.49,3.15,5.62,7.55,0.21,-0.76,-0.16,7197,2019-04-03 15:49:01:485
-9.51,7.75,-0.77,-8.64,6.67,-11.24,-0.02,0.69,0.11,7202,2019-04-03 15:49:01:490
-9.51,7.75,-0.77,-8.64,6.67,-11.24,-0.02,0.69,0.11,7205,2019-04-03 15:49:01:493
-9.51,7.75,-0.77,-8.64,6.67,-11.24,-0.02,0.69,0.11,7211,2019-04-03 15:49:01:499
-9.51,7.75,-0.77,-8.64,6.67,-11.24,-0.02,0.69,0.11,7218,2019-04-03 15:49:01:506
-9.51,7.75,-0.77,-8.64,6.67,-11.24,-0.02,0.69,0.11,7221,2019-04-03 15:49:01:509
-9.51,7.75,-0.77,-8.64,6.67,-11.24,-0.02,0.69,0.11,7225,2019-04-03 15:49:01:513
-9.51,7.75,-0.77,-8.64,6.67,-11.24,-0.02,0.69,0.11,7231,2019-04-03 15:49:01:519
1.9,1.34,1.61,2.51,-0.08,-9.03,-0.07,-0.4,-0.06,7239,2019-04-03 15:49:01:527
1.9,1.34,1.61,2.51,-0.08,-9.03,-0.07,-0.4,-0.06,7243,2019-04-03 15:49:01:531
1.9,1.34,1.61,2.51,-0.08,-9.03,-0.07,-0.4,-0.06,7245,2019-04-03 15:49:01:533
1.9,1.34,1.61,-4.8,-6.59,5.46,0.31,-0.28,-0.08,7251,2019-04-03 15:49:01:539
1.9,1.34,1.61,-4.8,-6.59,5.46,0.31,-0.28,-0.08,7260,2019-04-03 15:49:01:548
1.9,1.34,1.61,-4.8,-6.59,5.46,0.31,-0.28,-0.08,7261,2019-04-03 15:49:01:549
1.9,1.34,1.61,-4.8,-6.59,5.46,0.31,-0.28,-0.08,7267,2019-04-03 15:49:01:555
1.9,1.34,1.61,-4.8,-6.59,5.46,0.31,-0.28,-0.08,7272,2019-04-03 15:49:01:560
1.9,1.34,1.61,-4.8,-6.59,5.46,0.31,-0.28,-0.08,7276,2019-04-03 15:49:01:564
1.9,1.34,1.61,-4.8,-6.59,5.46,0.31,-0.28,-0.08,7281,2019-04-03 15:49:01:569
1.36,2.44,4.3,1.4,1.2,-5.86,-0.27,0.41,0.07,7288,2019-04-03 15:49:01:576
1.36,2.44,4.3,1.4,1.2,-5.86,-0.27,0.41,0.07,7290,2019-04-03 15:49:01:578
1.36,2.44,4.3,1.4,1.2,-5.86,-0.27,0.41,0.07,7296,2019-04-03 15:49:01:584
1.36,2.44,4.3,1.4,1.2,-5.86,-0.27,0.41,0.07,7303,2019-04-03 15:49:01:591
15.68,3.12,10.37,1.4,1.2,-5.86,-0.27,0.41,0.07,7307,2019-04-03 15:49:01:595
15.68,3.12,10.37,14.77,1.42,0.38,0.36,-0.68,-0.09,7310,2019-04-03 15:49:01:598
15.68,3.12,10.37,14.77,1.42,0.38,0.36,-0.68,-0.09,7315,2019-04-03 15:49:01:603
15.68,3.12,10.37,14.77,1.42,0.38,0.36,-0.68,-0.09,7322,2019-04-03 15:49:01:610
15.68,3.12,10.37,14.77,1.42,0.38,0.36,-0.68,-0.09,7327,2019-04-03 15:49:01:615
15.68,3.12,10.37,14.77,1.42,0.38,0.36,-0.68,-0.09,7331,2019-04-03 15:49:01:619
15.68,3.12,10.37,14.77,1.42,0.38,0.36,-0.68,-0.09,7335,2019-04-03 15:49:01:623
2.82,-5.81,18.48,2.34,-7.19,8.57,-0.04,0.53,0.13,7341,2019-04-03 15:49:01:629
2.82,-5.81,18.48,2.34,-7.19,8.57,-0.04,0.53,0.13,7346,2019-04-03 15:49:01:634
5.75,1.35,15.6,5.08,0.44,5.97,0.07,0.61,0.17,7352,2019-04-03 15:49:01:640
5.75,1.35,15.6,5.08,0.44,5.97,0.07,0.61,0.17,7356,2019-04-03 15:49:01:644
5.75,1.35,15.6,5.08,0.44,5.97,0.07,0.61,0.17,7361,2019-04-03 15:49:01:649
5.75,1.35,15.6,5.08,0.44,5.97,0.07,0.61,0.17,7365,2019-04-03 15:49:01:653
-6.04,5.99,14.03,-5.81,4.68,4.64,0.26,-0.18,0.02,7373,2019-04-03 15:49:01:661
-6.04,5.99,14.03,-5.81,4.68,4.64,0.26,-0.18,0.02,7376,2019-04-03 15:49:01:664
-6.04,5.99,14.03,-5.81,4.68,4.64,0.26,-0.18,0.02,7381,2019-04-03 15:49:01:669
9.73,5.08,8.51,8.8,3.76,-1.09,0.06,-0.54,-0.16,7387,2019-04-03 15:49:01:675
9.73,5.08,8.51,8.8,3.76,-1.09,0.06,-0.54,-0.16,7391,2019-04-03 15:49:01:679
9.73,5.08,8.51,8.8,3.76,-1.09,0.06,-0.54,-0.16,7395,2019-04-03 15:49:01:683
9.73,5.08,8.51,8.8,3.76,-1.09,0.06,-0.54,-0.16,7402,2019-04-03 15:49:01:690
9.73,5.08,8.51,8.8,3.76,-1.09,0.06,-0.54,-0.16,7406,2019-04-03 15:49:01:694
4.03,-4.04,17.1,3.8,-5.09,8.06,0.24,0.3,0.04,7411,2019-04-03 15:49:01:699
4.03,-4.04,17.1,3.8,-5.09,8.06,0.24,0.3,0.04,7415,2019-04-03 15:49:01:703
4.03,-4.04,17.1,3.8,-5.09,8.06,0.24,0.3,0.04,7422,2019-04-03 15:49:01:710
4.03,-4.04,17.1,3.8,-5.09,8.06,0.24,0.3,0.04,7426,2019-04-03 15:49:01:714
4.03,-4.04,17.1,3.8,-5.09,8.06,0.24,0.3,0.04,7434,2019-04-03 15:49:01:722
4.03,-4.04,17.1,3.8,-5.09,8.06,0.24,0.3,0.04,7435,2019-04-03 15:49:01:723
-10.85,9.34,-4.52,-11.11,8.29,-12.89,0.14,0.89,0.18,7442,2019-04-03 15:49:01:730
-10.85,9.34,-4.52,-11.11,8.29,-12.89,0.14,0.89,0.18,7446,2019-04-03 15:49:01:734
-5.97,3.71,7.13,1.5,-1.79,-1.7,-0.28,-0.45,-0.06,7452,2019-04-03 15:49:01:740
-5.97,3.71,7.13,1.5,-1.79,-1.7,-0.28,-0.45,-0.06,7456,2019-04-03 15:49:01:744
-5.97,3.71,7.13,1.5,-1.79,-1.7,-0.28,-0.45,-0.06,7462,2019-04-03 15:49:01:750
-5.97,3.71,7.13,1.5,-1.79,-1.7,-0.28,-0.45,-0.06,7465,2019-04-03 15:49:01:753
-5.97,3.71,7.13,1.5,-1.79,-1.7,-0.28,-0.45,-0.06,7472,2019-04-03 15:49:01:760
-5.97,3.71,7.13,1.5,-1.79,-1.7,-0.28,-0.45,-0.06,7475,2019-04-03 15:49:01:763
4.08,0.38,19.09,3.27,-1.24,10.17,0.59,-0.19,0.02,7483,2019-04-03 15:49:01:771
4.08,0.38,19.09,3.27,-1.24,10.17,0.59,-0.19,0.02,7488,2019-04-03 15:49:01:776
4.08,0.38,19.09,3.27,-1.24,10.17,0.59,-0.19,0.02,7491,2019-04-03 15:49:01:779
4.08,0.38,19.09,3.27,-1.24,10.17,0.59,-0.19,0.02,7496,2019-04-03 15:49:01:784
-0.23,3.6,2.21,-1.0,1.98,-6.28,-0.12,0.48,0.13,7501,2019-04-03 15:49:01:789
-0.23,3.6,2.21,-1.0,1.98,-6.28,-0.12,0.48,0.13,7506,2019-04-03 15:49:01:794
-0.23,3.6,2.21,-1.0,1.98,-6.28,-0.12,0.48,0.13,7511,2019-04-03 15:49:01:799
-0.23,-6.9,19.58,-1.0,1.98,-6.28,-0.33,0.19,0.08,7516,2019-04-03 15:49:01:804
2.41,-6.9,19.58,2.08,-8.14,10.85,-0.33,0.19,0.08,7521,2019-04-03 15:49:01:809
2.41,-6.9,19.58,2.08,-8.14,10.85,-0.33,0.19,0.08,7526,2019-04-03 15:49:01:814
-20.79,6.81,0.25,-20.96,4.8,-8.45,0.37,1.0,0.51,7531,2019-04-03 15:49:01:819
-20.79,6.81,0.25,-20.96,4.8,-8.45,0.37,1.0,0.51,7535,2019-04-03 15:49:01:823
-20.79,6.81,0.25,-20.96,4.8,-8.45,0.37,1.0,0.51,7542,2019-04-03 15:49:01:830
-20.79,6.81,0.25,-20.96,4.8,-8.45,0.37,1.0,0.51,7546,2019-04-03 15:49:01:834
-11.34,-2.15,32.23,-11.94,-4.2,20.68,-0.52,-0.73,0.06,7553,2019-04-03 15:49:01:841
-11.34,-2.15,32.23,-11.94,-4.2,20.68,-0.52,-0.73,0.06,7556,2019-04-03 15:49:01:844
-11.34,-2.15,32.23,-11.94,-4.2,20.68,-0.52,-0.73,0.06,7561,2019-04-03 15:49:01:849
-11.34,-2.15,32.23,-11.94,-4.2,20.68,-0.52,-0.73,0.06,7566,2019-04-03 15:49:01:854
15.26,2.29,17.49,14.47,-0.26,6.45,0.63,-1.08,-0.11,7572,2019-04-03 15:49:01:860
15.26,2.29,17.49,14.47,-0.26,6.45,0.63,-1.08,-0.11,7576,2019-04-03 15:49:01:864
15.26,2.29,17.49,14.47,-0.26,6.45,0.63,-1.08,-0.11,7581,2019-04-03 15:49:01:869
15.26,2.29,17.49,14.47,-0.26,6.45,0.63,-1.08,-0.11,7585,2019-04-03 15:49:01:873
-13.27,-4.36,0.95,-12.63,-5.47,-10.07,-0.3,1.14,0.33,7593,2019-04-03 15:49:01:881
-13.27,-4.36,0.95,-12.63,-5.47,-10.07,-0.3,1.14,0.33,7597,2019-04-03 15:49:01:885
-13.27,-4.36,0.95,-12.63,-5.47,-10.07,-0.3,1.14,0.33,7601,2019-04-03 15:49:01:889
-13.27,-4.36,0.95,-12.63,-5.47,-10.07,-0.3,1.14,0.33,7606,2019-04-03 15:49:01:894
-7.25,-10.39,15.19,-7.82,-11.01,3.77,-0.6,-0.4,-0.01,7611,2019-04-03 15:49:01:899
-7.25,-10.39,15.19,-7.82,-11.01,3.77,-0.6,-0.4,-0.01,7618,2019-04-03 15:49:01:906
-7.25,-10.39,15.19,-7.82,-11.01,3.77,-0.6,-0.4,-0.01,7621,2019-04-03 15:49:01:909
-7.25,-10.39,15.19,-7.82,-11.01,3.77,-0.6,-0.4,-0.01,7628,2019-04-03 15:49:01:916
15.47,5.84,24.88,14.13,4.7,11.67,0.7,-1.01,-0.21,7631,2019-04-03 15:49:01:919
15.47,5.84,24.88,14.13,4.7,11.67,0.7,-1.01,-0.21,7635,2019-04-03 15:49:01:923
15.47,5.84,24.88,14.13,4.7,11.67,0.7,-1.01,-0.21,7642,2019-04-03 15:49:01:930
15.47,5.84,24.88,14.13,4.7,11.67,0.7,-1.01,-0.21,7648,2019-04-03 15:49:01:936
15.47,5.84,24.88,14.13,4.7,11.67,0.7,-1.01,-0.21,7651,2019-04-03 15:49:01:939
-1.68,6.22,9.24,-1.35,5.61,-3.62,-0.34,0.87,0.1,7656,2019-04-03 15:49:01:944
-1.68,6.22,9.24,-1.35,5.61,-3.62,-0.34,0.87,0.1,7661,2019-04-03 15:49:01:949
-1.68,6.22,9.24,-1.35,5.61,-3.62,-0.34,0.87,0.1,7669,2019-04-03 15:49:01:957
-7.6,-4.5,10.75,-7.34,-4.88,-1.51,-0.39,0.27,-0.06,7672,2019-04-03 15:49:01:960
-7.6,-4.5,10.75,-7.34,-4.88,-1.51,-0.39,0.27,-0.06,7676,2019-04-03 15:49:01:964
-7.6,-4.5,10.75,-7.34,-4.88,-1.51,-0.39,0.27,-0.06,7681,2019-04-03 15:49:01:969
-7.6,-4.5,10.75,-7.34,-4.88,-1.51,-0.39,0.27,-0.06,7686,2019-04-03 15:49:01:974
5.91,15.3,7.34,5.67,13.73,-5.02,0.83,-0.51,-0.17,7692,2019-04-03 15:49:01:980
5.91,15.3,7.34,5.67,13.73,-5.02,0.83,-0.51,-0.17,7696,2019-04-03 15:49:01:984
5.91,15.3,7.34,5.67,13.73,-5.02,0.83,-0.51,-0.17,7702,2019-04-03 15:49:01:990
5.91,15.3,7.34,5.67,13.73,-5.02,0.83,-0.51,-0.17,7705,2019-04-03 15:49:01:993
-7.36,0.88,16.13,-6.91,-0.56,3.96,-0.2,0.2,0.1,7713,2019-04-03 15:49:02:001
-7.36,0.88,16.13,-6.91,-0.56,3.96,-0.2,0.2,0.1,7716,2019-04-03 15:49:02:004
-7.36,0.88,16.13,-6.91,-0.56,3.96,-0.2,0.2,0.1,7722,2019-04-03 15:49:02:010
-7.36,0.88,16.13,-6.91,-0.56,3.96,-0.2,0.2,0.1,7725,2019-04-03 15:49:02:013
4.88,-5.61,6.77,4.02,-6.5,-4.96,-0.34,-0.35,-0.06,7732,2019-04-03 15:49:02:020
4.88,-5.61,6.77,4.02,-6.5,-4.96,-0.34,-0.35,-0.06,7736,2019-04-03 15:49:02:024
4.88,-5.61,6.77,4.02,-6.5,-4.96,-0.34,-0.35,-0.06,7741,2019-04-03 15:49:02:029
4.88,-5.61,6.77,4.02,-6.5,-4.96,-0.34,-0.35,-0.06,7746,2019-04-03 15:49:02:034
-1.15,5.13,10.45,-1.42,3.6,1.95,0.87,0.2,0.05,7752,2019-04-03 15:49:02:040
-1.15,5.13,10.45,-1.42,3.6,1.95,0.87,0.2,0.05,7756,2019-04-03 15:49:02:044
-1.15,5.13,10.45,-1.42,3.6,1.95,0.87,0.2,0.05,7761,2019-04-03 15:49:02:049
-1.15,5.13,10.45,-1.42,3.6,1.95,0.87,0.2,0.05,7765,2019-04-03 15:49:02:053
-9.77,-2.09,5.07,-1.42,3.6,1.95,-0.42,0.17,0.14,7772,2019-04-03 15:49:02:060
-9.77,-2.09,5.07,-9.55,-1.99,-4.23,-0.42,0.17,0.14,7778,2019-04-03 15:49:02:066
-9.77,-2.09,5.07,-9.55,-1.99,-4.23,-0.42,0.17,0.14,7781,2019-04-03 15:49:02:069
-9.77,-2.09,5.07,-9.55,-1.99,-4.23,-0.42,0.17,0.14,7786,2019-04-03 15:49:02:074
0.32,3.32,10.82,-9.55,-1.99,-4.23,-0.09,-0.54,0.0,7791,2019-04-03 15:49:02:079
0.32,3.32,10.82,-0.48,2.2,0.95,-0.09,-0.54,0.0,7795,2019-04-03 15:49:02:083
0.32,3.32,10.82,-0.48,2.2,0.95,-0.09,-0.54,0.0,7801,2019-04-03 15:49:02:089
