ACCELEROMETER X (m/s²),ACCELEROMETER Y (m/s²),ACCELEROMETER Z (m/s²),LINEAR ACCELERATION X (m/s²),LINEAR ACCELERATION Y (m/s²),LINEAR ACCELERATION Z (m/s²),GYROSCOPE X (rad/s),GYROSCOPE Y (rad/s),GYROSCOPE Z (rad/s),Time since start in ms ,YYYY-MO-DD HH-MI-SS_SSS
0.5,0.73,9.86,-0.04,0.13,-0.05,0.0,0.0,0.01,3,2019-03-25 16:52:16:281
0.5,0.73,9.86,-0.04,0.13,-0.05,0.0,0.0,0.01,8,2019-03-25 16:52:16:286
0.5,0.73,9.86,-0.04,0.13,-0.05,0.0,0.0,0.01,13,2019-03-25 16:52:16:291
0.5,0.73,9.86,-0.04,0.13,-0.05,0.0,0.0,0.01,18,2019-03-25 16:52:16:296
0.5,0.73,9.86,-0.04,0.13,-0.05,0.0,0.0,0.01,23,2019-03-25 16:52:16:301
0.5,0.73,9.86,-0.04,0.13,-0.05,0.0,0.0,0.01,28,2019-03-25 16:52:16:306
0.57,0.69,9.89,0.02,0.08,-0.02,0.0,0.0,0.0,33,2019-03-25 16:52:16:311
0.57,0.69,9.89,0.02,0.08,-0.02,0.0,0.0,0.0,38,2019-03-25 16:52:16:316
0.57,0.69,9.89,0.02,0.08,-0.02,0.0,0.0,0.0,43,2019-03-25 16:52:16:321
0.57,0.69,9.89,0.02,0.08,-0.02,0.0,0.0,0.0,48,2019-03-25 16:52:16:326
0.58,0.53,9.99,0.03,-0.03,0.06,0.0,0.0,-0.01,53,2019-03-25 16:52:16:331
0.58,0.53,9.99,0.03,-0.03,0.06,0.0,0.0,-0.01,58,2019-03-25 16:52:16:336
0.58,0.53,9.99,0.03,-0.03,0.06,0.0,0.0,-0.01,65,2019-03-25 16:52:16:343
0.58,0.53,9.99,0.03,-0.03,0.06,0.0,0.0,-0.01,68,2019-03-25 16:52:16:346
0.58,0.53,9.99,0.03,-0.03,0.06,0.0,0.0,-0.01,73,2019-03-25 16:52:16:351
0.58,0.53,9.99,0.03,-0.03,0.06,0.0,0.0,-0.01,78,2019-03-25 16:52:16:356
0.58,0.53,9.99,0.03,-0.03,0.06,0.0,0.0,-0.01,83,2019-03-25 16:52:16:361
0.5,0.41,9.88,0.0,-0.08,-0.05,0.0,0.0,-0.03,88,2019-03-25 16:52:16:366
0.5,0.41,9.88,0.0,-0.08,-0.05,0.0,0.0,-0.03,93,2019-03-25 16:52:16:371
0.5,0.41,9.88,0.0,-0.08,-0.05,0.0,0.0,-0.02,98,2019-03-25 16:52:16:376
0.5,0.41,9.88,0.0,-0.08,-0.05,0.0,0.0,-0.02,103,2019-03-25 16:52:16:381
0.5,0.41,9.88,0.0,-0.08,-0.05,0.0,0.0,-0.02,108,2019-03-25 16:52:16:386
0.5,0.41,9.88,0.0,-0.08,-0.05,0.0,0.0,-0.02,113,2019-03-25 16:52:16:391
0.5,0.41,9.88,0.0,-0.08,-0.05,0.0,0.0,-0.02,118,2019-03-25 16:52:16:396
0.5,0.41,9.88,0.0,-0.08,-0.05,0.0,0.0,-0.02,125,2019-03-25 16:52:16:403
0.5,0.41,9.88,0.0,-0.08,-0.05,0.0,0.0,-0.02,128,2019-03-25 16:52:16:406
0.48,0.39,9.97,-0.02,-0.11,0.03,0.0,0.0,-0.02,133,2019-03-25 16:52:16:411
0.48,0.39,9.97,-0.02,-0.11,0.03,0.0,0.0,-0.02,139,2019-03-25 16:52:16:417
0.48,0.39,9.97,-0.02,-0.11,0.03,0.0,0.0,-0.02,148,2019-03-25 16:52:16:426
0.48,0.39,9.97,-0.02,-0.11,0.03,0.0,0.0,-0.02,149,2019-03-25 16:52:16:427
0.43,0.31,10.03,-0.07,-0.19,0.09,0.0,0.0,-0.01,153,2019-03-25 16:52:16:431
0.43,0.31,10.03,-0.07,-0.19,0.09,0.0,0.0,-0.01,158,2019-03-25 16:52:16:436
0.43,0.31,10.03,-0.07,-0.19,0.09,0.0,0.0,-0.01,164,2019-03-25 16:52:16:442
0.43,0.31,10.03,-0.07,-0.19,0.09,0.0,0.0,-0.01,168,2019-03-25 16:52:16:446
0.35,0.12,10.01,-0.14,-0.36,0.07,0.0,0.0,-0.01,173,2019-03-25 16:52:16:451
0.35,0.12,10.01,-0.14,-0.36,0.07,0.0,0.0,-0.01,179,2019-03-25 16:52:16:457
0.35,0.12,10.01,-0.14,-0.36,0.07,0.0,0.0,-0.01,184,2019-03-25 16:52:16:462
0.35,0.12,10.01,-0.14,-0.36,0.07,0.0,0.0,-0.01,188,2019-03-25 16:52:16:466
0.35,0.12,10.01,-0.14,-0.36,0.07,0.0,0.0,-0.01,193,2019-03-25 16:52:16:471
-0.59,-0.09,10.31,-0.93,-0.43,0.34,0.0,0.0,0.0,201,2019-03-25 16:52:16:479
-0.59,-0.09,10.31,-0.93,-0.43,0.34,0.0,0.0,0.0,203,2019-03-25 16:52:16:481
-0.59,-0.09,10.31,-0.93,-0.43,0.34,0.0,0.0,0.0,208,2019-03-25 16:52:16:486
-0.59,-0.09,10.31,-0.93,-0.43,0.34,0.0,0.0,0.0,213,2019-03-25 16:52:16:491
2.25,0.19,9.75,1.77,-0.09,-0.23,0.0,-0.02,-0.01,218,2019-03-25 16:52:16:496
2.25,0.19,9.75,1.77,-0.09,-0.23,0.0,-0.02,-0.01,223,2019-03-25 16:52:16:501
2.25,0.19,9.75,1.77,-0.09,-0.23,0.0,-0.02,-0.01,227,2019-03-25 16:52:16:505
2.25,0.19,9.75,1.77,-0.09,-0.23,0.0,-0.02,-0.01,233,2019-03-25 16:52:16:511
0.94,0.21,9.96,0.38,-0.04,-0.01,0.0,0.0,-0.02,238,2019-03-25 16:52:16:516
0.94,0.21,9.96,0.38,-0.04,-0.01,0.0,0.0,-0.02,243,2019-03-25 16:52:16:521
0.94,0.21,9.96,0.38,-0.04,-0.01,0.0,0.0,-0.02,248,2019-03-25 16:52:16:526
0.94,0.21,9.96,0.38,-0.04,-0.01,0.0,0.0,-0.02,253,2019-03-25 16:52:16:531
0.04,0.0,9.84,-0.48,-0.21,-0.12,0.01,0.0,0.03,257,2019-03-25 16:52:16:535
0.04,0.0,9.84,-0.48,-0.21,-0.12,0.01,0.0,0.03,263,2019-03-25 16:52:16:541
0.04,0.0,9.84,-0.48,-0.21,-0.12,0.01,0.0,0.03,268,2019-03-25 16:52:16:546
0.04,0.0,9.84,-0.48,-0.21,-0.12,0.01,0.0,0.03,273,2019-03-25 16:52:16:551
0.04,0.0,9.84,-0.48,-0.21,-0.12,0.01,0.0,0.03,278,2019-03-25 16:52:16:556
0.04,0.0,9.84,-0.48,-0.21,-0.12,0.01,0.0,0.03,283,2019-03-25 16:52:16:561
-0.51,0.38,10.44,-0.48,-0.21,-0.12,0.01,0.0,0.03,288,2019-03-25 16:52:16:566
-0.51,0.38,10.44,-0.96,0.18,0.43,0.01,0.0,0.05,293,2019-03-25 16:52:16:571
-0.51,0.38,10.44,-0.96,0.18,0.43,0.01,0.0,0.05,298,2019-03-25 16:52:16:576
-0.51,0.38,10.44,-0.96,0.18,0.43,0.01,0.0,0.05,303,2019-03-25 16:52:16:581
-0.51,0.38,10.44,-0.96,0.18,0.43,0.01,0.0,0.05,308,2019-03-25 16:52:16:586
-0.51,0.38,10.44,-0.96,0.18,0.43,0.01,0.0,0.05,313,2019-03-25 16:52:16:591
1.24,0.53,9.88,0.75,0.3,-0.09,0.01,0.0,0.04,318,2019-03-25 16:52:16:596
1.24,0.53,9.88,0.75,0.3,-0.09,0.01,0.0,0.04,324,2019-03-25 16:52:16:602
1.24,0.53,9.88,0.75,0.3,-0.09,0.01,0.0,0.04,329,2019-03-25 16:52:16:607
1.24,0.53,9.88,0.75,0.3,-0.09,0.01,0.0,0.04,333,2019-03-25 16:52:16:611
0.8,0.51,9.7,0.27,0.25,-0.25,0.01,0.0,0.02,341,2019-03-25 16:52:16:619
0.8,0.51,9.7,0.27,0.25,-0.25,0.01,0.0,0.02,343,2019-03-25 16:52:16:621
0.8,0.51,9.7,0.27,0.25,-0.25,0.01,0.0,0.02,348,2019-03-25 16:52:16:626
0.8,0.51,9.7,0.27,0.25,-0.25,0.01,0.0,0.02,353,2019-03-25 16:52:16:631
0.8,0.51,9.7,0.27,0.25,-0.25,0.01,0.0,0.02,359,2019-03-25 16:52:16:637
0.8,0.51,9.7,0.27,0.25,-0.25,0.01,0.0,0.02,363,2019-03-25 16:52:16:641
0.43,0.6,10.0,-0.09,0.29,0.04,0.0,0.0,0.01,369,2019-03-25 16:52:16:647
0.43,0.6,10.0,-0.09,0.29,0.04,0.0,0.0,0.01,373,2019-03-25 16:52:16:651
0.43,0.6,10.0,-0.09,0.29,0.04,0.0,0.0,0.01,378,2019-03-25 16:52:16:656
0.43,0.6,10.0,-0.09,0.29,0.04,0.0,0.0,0.01,383,2019-03-25 16:52:16:661
0.06,-0.43,10.18,-0.46,-0.71,0.22,0.01,0.0,0.02,388,2019-03-25 16:52:16:666
0.06,-0.43,10.18,-0.46,-0.71,0.22,0.01,0.0,0.02,393,2019-03-25 16:52:16:671
0.06,-0.43,10.18,-0.46,-0.71,0.22,0.01,0.0,0.02,397,2019-03-25 16:52:16:675
0.72,0.13,10.12,-0.15,-1.49,0.15,0.02,0.0,0.09,403,2019-03-25 16:52:16:681
0.72,0.13,10.12,-0.15,-1.49,0.15,0.02,0.0,0.09,408,2019-03-25 16:52:16:686
0.72,0.13,10.12,-0.15,-1.49,0.15,0.02,0.0,0.09,413,2019-03-25 16:52:16:691
1.22,1.86,9.48,1.01,1.18,-0.02,0.03,0.01,0.15,418,2019-03-25 16:52:16:696
1.22,1.86,9.48,1.01,1.18,-0.02,0.03,0.01,0.15,423,2019-03-25 16:52:16:701
1.22,1.86,9.48,1.01,1.18,-0.02,0.03,0.01,0.15,428,2019-03-25 16:52:16:706
1.22,1.86,9.48,1.01,1.18,-0.02,0.03,0.01,0.15,433,2019-03-25 16:52:16:711
0.75,1.87,9.87,0.21,1.47,-0.06,0.03,0.02,0.11,438,2019-03-25 16:52:16:716
0.75,1.87,9.87,0.21,1.47,-0.06,0.03,0.02,0.11,443,2019-03-25 16:52:16:721
0.75,1.87,9.87,0.21,1.47,-0.06,0.03,0.02,0.11,449,2019-03-25 16:52:16:727
0.75,1.87,9.87,0.21,1.47,-0.06,0.03,0.02,0.11,453,2019-03-25 16:52:16:731
0.75,1.87,9.87,0.21,1.47,-0.06,0.03,0.02,0.11,458,2019-03-25 16:52:16:736
0.75,1.87,9.87,0.21,1.47,-0.06,0.03,0.02,0.11,463,2019-03-25 16:52:16:741
0.51,1.41,9.89,-0.05,0.86,-0.03,0.01,0.01,0.05,468,2019-03-25 16:52:16:746
0.51,1.41,9.89,-0.05,0.86,-0.03,0.01,0.01,0.05,473,2019-03-25 16:52:16:751
0.29,1.13,9.85,-0.35,0.44,-0.05,0.0,0.0,0.0,478,2019-03-25 16:52:16:756
0.29,1.13,9.85,-0.35,0.44,-0.05,0.0,0.0,0.0,483,2019-03-25 16:52:16:761
0.29,1.13,9.85,-0.35,0.44,-0.05,0.0,0.0,0.0,488,2019-03-25 16:52:16:766
0.29,1.13,9.85,-0.35,0.44,-0.05,0.0,0.0,0.0,493,2019-03-25 16:52:16:771
0.51,0.93,9.78,-0.12,0.23,-0.11,0.0,0.0,-0.03,498,2019-03-25 16:52:16:776
0.51,0.93,9.78,-0.12,0.23,-0.11,0.0,0.0,-0.03,505,2019-03-25 16:52:16:783
0.51,0.93,9.78,-0.12,0.23,-0.11,0.0,0.0,-0.03,509,2019-03-25 16:52:16:787
0.51,0.93,9.78,-0.12,0.23,-0.11,0.0,0.0,-0.03,514,2019-03-25 16:52:16:792
0.64,0.38,9.87,0.04,-0.31,-0.03,0.0,0.0,-0.04,518,2019-03-25 16:52:16:796
0.64,0.38,9.87,0.04,-0.31,-0.03,0.0,0.0,-0.04,523,2019-03-25 16:52:16:801
0.64,0.38,9.87,0.04,-0.31,-0.03,0.0,0.0,-0.04,528,2019-03-25 16:52:16:806
0.64,0.38,9.87,0.04,-0.31,-0.03,0.0,0.0,-0.04,533,2019-03-25 16:52:16:811
0.43,0.06,9.99,-0.12,-0.57,0.07,0.0,0.0,-0.04,537,2019-03-25 16:52:16:815
0.43,0.06,9.99,-0.12,-0.57,0.07,0.0,0.0,-0.04,543,2019-03-25 16:52:16:821
0.43,0.06,9.99,-0.12,-0.57,0.07,0.0,0.0,-0.04,548,2019-03-25 16:52:16:826
0.43,0.06,9.99,-0.12,-0.57,0.07,0.0,0.0,-0.04,553,2019-03-25 16:52:16:831
0.43,0.06,9.99,-0.12,-0.57,0.07,0.0,0.0,-0.04,557,2019-03-25 16:52:16:835
0.25,-0.09,9.95,-0.29,-0.66,0.03,0.0,0.0,0.0,564,2019-03-25 16:52:16:842
0.25,-0.09,9.95,-0.29,-0.66,0.03,0.0,0.0,0.0,568,2019-03-25 16:52:16:846
0.25,-0.09,9.95,-0.29,-0.66,0.03,0.0,0.0,0.0,574,2019-03-25 16:52:16:852
0.25,-0.09,9.95,-0.29,-0.66,0.03,0.0,0.0,0.0,578,2019-03-25 16:52:16:856
-0.1,0.15,10.0,-0.61,-0.45,0.09,0.01,0.0,0.03,583,2019-03-25 16:52:16:861
-0.1,0.15,10.0,-0.61,-0.45,0.09,0.01,0.0,0.03,589,2019-03-25 16:52:16:867
-0.1,0.15,10.0,-0.61,-0.45,0.09,0.01,0.0,0.03,593,2019-03-25 16:52:16:871
-0.1,0.15,10.0,-0.61,-0.45,0.09,0.01,0.0,0.03,599,2019-03-25 16:52:16:877
0.01,0.39,10.06,-0.46,-0.35,0.14,0.01,0.0,0.06,603,2019-03-25 16:52:16:881
0.01,0.39,10.06,-0.46,-0.35,0.14,0.01,0.0,0.06,608,2019-03-25 16:52:16:886
0.01,0.39,10.06,-0.46,-0.35,0.14,0.01,0.0,0.06,613,2019-03-25 16:52:16:891
0.01,0.39,10.06,-0.46,-0.35,0.14,0.01,0.0,0.06,618,2019-03-25 16:52:16:896
0.01,0.39,10.06,-0.46,-0.35,0.14,0.01,0.0,0.06,623,2019-03-25 16:52:16:901
0.39,0.7,9.97,0.0,-0.03,0.06,0.01,0.0,0.09,628,2019-03-25 16:52:16:906
0.39,0.7,9.97,0.0,-0.03,0.06,0.01,0.0,0.09,633,2019-03-25 16:52:16:911
0.39,0.7,9.97,0.0,-0.03,0.06,0.01,0.0,0.09,639,2019-03-25 16:52:16:917
0.68,1.03,9.83,0.32,0.39,-0.09,0.01,0.0,0.08,643,2019-03-25 16:52:16:921
0.68,1.03,9.83,0.32,0.39,-0.09,0.01,0.0,0.08,649,2019-03-25 16:52:16:927
0.68,1.03,9.83,0.32,0.39,-0.09,0.01,0.0,0.08,653,2019-03-25 16:52:16:931
0.84,0.9,9.82,0.32,0.39,-0.09,0.01,0.0,0.05,658,2019-03-25 16:52:16:936
0.84,0.9,9.82,0.32,0.39,-0.09,0.01,0.0,0.05,663,2019-03-25 16:52:16:941
0.84,0.9,9.82,0.46,0.3,-0.1,0.01,0.0,0.05,668,2019-03-25 16:52:16:946
0.84,0.9,9.82,0.46,0.3,-0.1,0.01,0.0,0.05,673,2019-03-25 16:52:16:951
0.91,0.81,9.83,0.47,0.26,-0.08,0.0,0.0,0.02,678,2019-03-25 16:52:16:956
0.91,0.81,9.83,0.47,0.26,-0.08,0.0,0.0,0.02,684,2019-03-25 16:52:16:962
0.91,0.81,9.83,0.47,0.26,-0.08,0.0,0.0,0.02,687,2019-03-25 16:52:16:965
0.91,0.81,9.83,0.47,0.26,-0.08,0.0,0.0,0.02,693,2019-03-25 16:52:16:971
0.83,0.53,9.9,0.35,0.02,-0.03,0.0,0.0,-0.01,698,2019-03-25 16:52:16:976
0.83,0.53,9.9,0.35,0.02,-0.03,0.0,0.0,-0.01,703,2019-03-25 16:52:16:981
0.83,0.53,9.9,0.35,0.02,-0.03,0.0,0.0,-0.01,708,2019-03-25 16:52:16:986
0.83,0.53,9.9,0.35,0.02,-0.03,0.0,0.0,-0.01,713,2019-03-25 16:52:16:991
0.83,0.53,9.9,0.35,0.02,-0.03,0.0,0.0,-0.01,719,2019-03-25 16:52:16:997
0.83,0.53,9.9,0.35,0.02,-0.03,0.0,0.0,-0.01,724,2019-03-25 16:52:17:002
0.58,0.22,9.99,0.1,-0.25,0.06,0.0,0.0,-0.03,728,2019-03-25 16:52:17:006
0.58,0.22,9.99,0.1,-0.25,0.06,0.0,0.0,-0.03,733,2019-03-25 16:52:17:011
0.58,0.22,9.99,0.1,-0.25,0.06,0.0,0.0,-0.04,738,2019-03-25 16:52:17:016
0.58,0.22,9.99,-0.08,-0.45,-0.03,0.0,0.0,-0.04,742,2019-03-25 16:52:17:020
0.58,0.22,9.99,-0.08,-0.45,-0.03,0.0,0.0,-0.04,748,2019-03-25 16:52:17:026
0.58,0.22,9.99,-0.08,-0.45,-0.03,0.0,0.0,-0.04,753,2019-03-25 16:52:17:031
0.32,0.18,10.02,-0.14,-0.31,0.09,0.0,0.0,-0.03,758,2019-03-25 16:52:17:036
0.32,0.18,10.02,-0.14,-0.31,0.09,0.0,0.0,-0.03,763,2019-03-25 16:52:17:041
0.32,0.18,10.02,-0.14,-0.31,0.09,0.0,0.0,-0.03,768,2019-03-25 16:52:17:046
0.32,0.18,10.02,-0.14,-0.31,0.09,0.0,0.0,-0.03,773,2019-03-25 16:52:17:051
0.45,0.3,9.95,-0.07,-0.2,0.03,0.0,0.0,0.0,778,2019-03-25 16:52:17:056
0.45,0.3,9.95,-0.07,-0.2,0.03,0.0,0.0,0.0,783,2019-03-25 16:52:17:061
0.45,0.3,9.95,-0.07,-0.2,0.03,0.0,0.0,0.0,788,2019-03-25 16:52:17:066
0.45,0.3,9.95,-0.07,-0.2,0.03,0.0,0.0,0.0,793,2019-03-25 16:52:17:071
0.47,0.59,9.99,-0.1,0.06,0.08,0.01,0.0,0.03,798,2019-03-25 16:52:17:076
0.47,0.59,9.99,-0.1,0.06,0.08,0.01,0.0,0.03,803,2019-03-25 16:52:17:081
0.47,0.59,9.99,-0.1,0.06,0.08,0.01,0.0,0.03,808,2019-03-25 16:52:17:086
0.47,0.59,9.99,-0.1,0.06,0.08,0.01,0.0,0.03,813,2019-03-25 16:52:17:091
0.4,0.6,10.08,-0.19,0.08,0.16,0.01,0.0,0.05,818,2019-03-25 16:52:17:096
0.4,0.6,10.08,-0.19,0.08,0.16,0.01,0.0,0.05,823,2019-03-25 16:52:17:101
0.4,0.6,10.08,-0.19,0.08,0.16,0.01,0.0,0.05,828,2019-03-25 16:52:17:106
0.4,0.6,10.08,-0.19,0.08,0.16,0.01,0.0,0.05,833,2019-03-25 16:52:17:111
0.34,0.49,9.99,-0.21,0.02,0.07,0.02,0.0,0.06,837,2019-03-25 16:52:17:115
0.34,0.49,9.99,-0.21,0.02,0.07,0.02,0.0,0.06,843,2019-03-25 16:52:17:121
0.34,0.49,9.99,-0.21,0.02,0.07,0.02,0.0,0.06,848,2019-03-25 16:52:17:126
0.34,0.49,9.99,-0.21,0.02,0.07,0.02,0.0,0.06,853,2019-03-25 16:52:17:131
0.48,0.61,9.95,-0.03,0.17,0.02,0.02,0.0,0.07,858,2019-03-25 16:52:17:136
0.48,0.61,9.95,-0.03,0.17,0.02,0.02,0.0,0.07,863,2019-03-25 16:52:17:141
0.48,0.61,9.95,-0.03,0.17,0.02,0.02,0.0,0.07,868,2019-03-25 16:52:17:146
0.48,0.61,9.95,-0.03,0.17,0.02,0.02,0.0,0.07,873,2019-03-25 16:52:17:151
0.36,1.15,9.86,-0.1,0.69,-0.07,0.03,0.0,0.08,878,2019-03-25 16:52:17:156
0.36,1.15,9.86,-0.1,0.69,-0.07,0.03,0.0,0.08,883,2019-03-25 16:52:17:161
0.36,1.15,9.86,-0.1,0.69,-0.07,0.03,0.0,0.08,888,2019-03-25 16:52:17:166
0.36,1.15,9.86,-0.1,0.69,-0.07,0.03,0.0,0.08,893,2019-03-25 16:52:17:171
0.31,1.24,10.02,-0.11,0.72,0.07,0.02,-0.01,0.08,898,2019-03-25 16:52:17:176
0.31,1.24,10.02,-0.11,0.72,0.07,0.02,-0.01,0.08,903,2019-03-25 16:52:17:181
0.31,1.24,10.02,-0.11,0.72,0.07,0.02,-0.01,0.08,908,2019-03-25 16:52:17:186
0.31,1.24,10.02,-0.11,0.72,0.07,0.02,-0.01,0.08,913,2019-03-25 16:52:17:191
0.38,1.39,9.83,-0.02,0.75,-0.11,0.02,-0.01,0.08,918,2019-03-25 16:52:17:196
0.38,1.39,9.83,-0.02,0.75,-0.11,0.02,-0.01,0.08,923,2019-03-25 16:52:17:201
0.38,1.39,9.83,-0.02,0.75,-0.11,0.02,-0.01,0.08,928,2019-03-25 16:52:17:206
0.38,1.39,9.83,-0.02,0.75,-0.11,0.02,-0.01,0.08,933,2019-03-25 16:52:17:211
0.38,1.39,9.83,-0.02,0.75,-0.11,0.02,-0.01,0.08,938,2019-03-25 16:52:17:216
0.38,1.39,9.83,-0.02,0.75,-0.11,0.02,-0.01,0.08,943,2019-03-25 16:52:17:221
0.38,1.39,9.83,-0.02,0.75,-0.11,0.02,-0.01,0.08,948,2019-03-25 16:52:17:226
0.45,1.28,9.88,0.05,0.52,-0.06,0.01,-0.01,0.07,953,2019-03-25 16:52:17:231
0.45,1.28,9.88,0.05,0.52,-0.06,0.01,-0.01,0.07,958,2019-03-25 16:52:17:236
0.45,1.28,9.88,0.05,0.52,-0.06,0.01,-0.01,0.07,963,2019-03-25 16:52:17:241
0.45,1.28,9.88,0.05,0.52,-0.06,0.01,-0.01,0.07,968,2019-03-25 16:52:17:246
0.45,1.28,9.88,0.05,0.52,-0.06,0.01,-0.01,0.07,974,2019-03-25 16:52:17:252
0.34,0.52,9.9,-0.04,-0.35,-0.03,0.0,-0.01,0.03,978,2019-03-25 16:52:17:256
0.34,0.52,9.9,-0.04,-0.35,-0.03,0.0,-0.01,0.03,983,2019-03-25 16:52:17:261
0.34,0.52,9.9,-0.04,-0.35,-0.03,0.0,-0.01,0.03,988,2019-03-25 16:52:17:266
0.34,0.52,9.9,-0.04,-0.35,-0.03,0.0,-0.01,0.03,993,2019-03-25 16:52:17:271
0.29,0.47,9.8,-0.07,-0.4,-0.12,0.0,0.0,0.04,998,2019-03-25 16:52:17:276
0.29,0.47,9.8,-0.07,-0.4,-0.12,0.0,0.0,0.04,1003,2019-03-25 16:52:17:281
0.29,0.47,9.8,-0.07,-0.4,-0.12,0.0,0.0,0.04,1008,2019-03-25 16:52:17:286
0.29,0.47,9.8,-0.07,-0.4,-0.12,0.0,0.0,0.04,1013,2019-03-25 16:52:17:291
0.26,0.5,9.99,-0.08,-0.35,0.06,0.0,0.0,0.06,1018,2019-03-25 16:52:17:296
0.26,0.5,9.99,-0.08,-0.35,0.06,0.0,0.0,0.06,1023,2019-03-25 16:52:17:301
0.26,0.5,9.99,-0.08,-0.35,0.06,0.0,0.0,0.06,1028,2019-03-25 16:52:17:306
0.26,0.5,9.99,-0.08,-0.35,0.06,0.0,0.0,0.06,1034,2019-03-25 16:52:17:312
0.11,0.59,10.0,-0.21,-0.28,0.06,0.0,0.0,0.08,1038,2019-03-25 16:52:17:316
0.11,0.59,10.0,-0.21,-0.28,0.06,0.0,0.0,0.08,1043,2019-03-25 16:52:17:321
0.11,0.59,10.0,-0.21,-0.28,0.06,0.0,0.0,0.08,1048,2019-03-25 16:52:17:326
0.11,0.59,10.0,-0.21,-0.28,0.06,0.0,0.0,0.08,1053,2019-03-25 16:52:17:331
0.08,0.85,9.9,-0.21,-0.04,-0.03,0.0,0.0,0.12,1058,2019-03-25 16:52:17:336
0.08,0.85,9.9,-0.21,-0.04,-0.03,0.0,0.0,0.12,1064,2019-03-25 16:52:17:342
0.08,0.85,9.9,-0.21,-0.04,-0.03,0.0,0.0,0.12,1068,2019-03-25 16:52:17:346
0.08,0.85,9.9,-0.21,-0.04,-0.03,0.0,0.0,0.12,1073,2019-03-25 16:52:17:351
0.1,1.2,10.12,-0.17,0.31,0.17,0.01,0.0,0.16,1078,2019-03-25 16:52:17:356
0.1,1.2,10.12,-0.17,0.31,0.17,0.01,0.0,0.16,1083,2019-03-25 16:52:17:361
0.1,1.2,10.12,-0.17,0.31,0.17,0.01,0.0,0.16,1088,2019-03-25 16:52:17:366
0.1,1.2,10.12,-0.17,0.31,0.17,0.01,0.0,0.16,1093,2019-03-25 16:52:17:371
0.1,1.2,10.12,-0.17,0.31,0.17,0.01,0.0,0.16,1098,2019-03-25 16:52:17:376
0.1,1.2,10.12,-0.17,0.31,0.17,0.01,0.0,0.16,1103,2019-03-25 16:52:17:381
0.1,1.2,10.12,-0.17,0.31,0.17,0.01,0.0,0.16,1108,2019-03-25 16:52:17:386
0.0,1.51,10.26,-0.25,0.6,0.3,0.02,0.0,0.18,1113,2019-03-25 16:52:17:391
0.0,1.51,10.26,-0.25,0.6,0.3,0.02,0.0,0.18,1118,2019-03-25 16:52:17:396
0.0,1.51,10.26,-0.25,0.6,0.3,0.02,0.0,0.18,1123,2019-03-25 16:52:17:401
0.0,1.51,10.26,-0.25,0.6,0.3,0.02,0.0,0.18,1128,2019-03-25 16:52:17:406
-0.29,1.45,10.02,-0.48,0.53,0.07,0.03,0.01,0.22,1133,2019-03-25 16:52:17:411
-0.29,1.45,10.02,-0.48,0.53,0.07,0.03,0.01,0.22,1138,2019-03-25 16:52:17:416
-0.29,1.45,10.02,-0.48,0.53,0.07,0.03,0.01,0.22,1147,2019-03-25 16:52:17:425
-0.29,1.45,10.02,-0.48,0.53,0.07,0.03,0.01,0.22,1149,2019-03-25 16:52:17:427
0.01,1.58,10.02,-0.07,0.58,0.06,0.04,0.01,0.27,1153,2019-03-25 16:52:17:431
0.01,1.58,10.02,-0.07,0.58,0.06,0.04,0.01,0.27,1158,2019-03-25 16:52:17:436
0.01,1.58,10.02,-0.07,0.58,0.06,0.04,0.01,0.27,1163,2019-03-25 16:52:17:441
0.01,1.58,10.02,-0.07,0.58,0.06,0.04,0.01,0.27,1168,2019-03-25 16:52:17:446
0.01,1.58,10.02,-0.07,0.58,0.06,0.04,0.01,0.27,1173,2019-03-25 16:52:17:451
0.01,1.58,10.02,-0.07,0.58,0.06,0.04,0.01,0.27,1178,2019-03-25 16:52:17:456
0.01,1.58,10.02,-0.07,0.58,0.06,0.04,0.01,0.27,1183,2019-03-25 16:52:17:461
0.72,1.81,9.74,0.61,0.7,-0.2,0.03,0.01,0.31,1189,2019-03-25 16:52:17:467
0.72,1.81,9.74,0.61,0.7,-0.2,0.03,0.01,0.31,1193,2019-03-25 16:52:17:471
0.72,1.81,9.74,0.61,0.7,-0.2,0.02,0.02,0.33,1198,2019-03-25 16:52:17:476
0.72,1.81,9.74,0.61,0.7,-0.2,0.02,0.02,0.33,1202,2019-03-25 16:52:17:480
0.72,1.81,9.74,0.61,0.7,-0.2,0.02,0.02,0.33,1208,2019-03-25 16:52:17:486
0.72,1.81,9.74,0.61,0.7,-0.2,0.02,0.02,0.33,1213,2019-03-25 16:52:17:491
0.49,2.08,9.82,0.35,0.67,-0.08,0.01,0.02,0.32,1218,2019-03-25 16:52:17:496
0.49,2.08,9.82,0.35,0.67,-0.08,0.01,0.02,0.32,1223,2019-03-25 16:52:17:501
0.49,2.08,9.82,0.35,0.67,-0.08,0.01,0.02,0.32,1228,2019-03-25 16:52:17:506
0.49,2.08,9.82,0.35,0.67,-0.08,0.01,0.02,0.32,1233,2019-03-25 16:52:17:511
0.24,1.86,9.01,0.12,0.32,-0.84,0.01,0.02,0.3,1238,2019-03-25 16:52:17:516
0.24,1.86,9.01,0.12,0.32,-0.84,0.01,0.02,0.3,1243,2019-03-25 16:52:17:521
0.24,1.86,9.01,0.12,0.32,-0.84,0.01,0.02,0.3,1248,2019-03-25 16:52:17:526
0.24,1.86,9.01,0.12,0.32,-0.84,0.01,0.02,0.3,1253,2019-03-25 16:52:17:531
0.24,1.86,9.01,0.12,0.32,-0.84,0.01,0.02,0.3,1258,2019-03-25 16:52:17:536
0.24,1.86,9.01,0.12,0.32,-0.84,0.01,0.02,0.3,1263,2019-03-25 16:52:17:541
0.24,1.86,9.01,0.12,0.32,-0.84,0.01,0.02,0.3,1268,2019-03-25 16:52:17:546
1.17,2.34,10.09,0.95,0.64,0.21,0.0,0.02,0.29,1272,2019-03-25 16:52:17:550
1.17,2.34,10.09,0.95,0.64,0.21,0.0,0.02,0.29,1278,2019-03-25 16:52:17:556
1.17,2.34,10.09,0.95,0.64,0.21,0.0,0.02,0.29,1283,2019-03-25 16:52:17:561
1.17,2.34,10.09,0.95,0.64,0.21,0.0,0.02,0.29,1288,2019-03-25 16:52:17:566
1.2,2.42,9.49,0.92,0.59,-0.39,0.03,0.02,0.23,1293,2019-03-25 16:52:17:571
1.2,2.42,9.49,0.92,0.59,-0.39,0.03,0.02,0.23,1298,2019-03-25 16:52:17:576
1.2,2.42,9.49,0.92,0.59,-0.39,0.03,0.02,0.23,1303,2019-03-25 16:52:17:581
1.2,2.42,9.49,0.92,0.59,-0.39,0.03,0.02,0.23,1308,2019-03-25 16:52:17:586
1.2,2.42,9.49,0.92,0.59,-0.39,0.03,0.02,0.23,1313,2019-03-25 16:52:17:591
1.2,2.42,9.49,0.92,0.59,-0.39,0.03,0.02,0.23,1318,2019-03-25 16:52:17:596
1.2,2.42,9.49,0.92,0.59,-0.39,0.03,0.02,0.23,1323,2019-03-25 16:52:17:601
1.2,2.42,9.49,0.92,0.59,-0.39,0.03,0.02,0.23,1328,2019-03-25 16:52:17:606
1.77,2.88,10.36,1.22,0.85,0.54,0.03,0.02,0.19,1333,2019-03-25 16:52:17:611
1.77,2.88,10.36,1.22,0.85,0.54,0.03,0.02,0.19,1338,2019-03-25 16:52:17:616
1.77,2.88,10.36,1.22,0.85,0.54,0.03,0.02,0.19,1343,2019-03-25 16:52:17:621
1.77,2.88,10.36,1.22,0.85,0.54,0.03,0.02,0.19,1348,2019-03-25 16:52:17:626
1.77,2.88,10.36,1.22,0.85,0.54,0.03,0.02,0.19,1353,2019-03-25 16:52:17:631
0.41,2.42,8.98,-0.31,0.16,-0.68,0.04,0.01,0.14,1358,2019-03-25 16:52:17:636
0.41,2.42,8.98,-0.31,0.16,-0.68,0.04,0.01,0.14,1363,2019-03-25 16:52:17:641
0.41,2.42,8.98,-0.31,0.16,-0.68,0.04,0.01,0.14,1368,2019-03-25 16:52:17:646
0.41,2.42,8.98,-0.31,0.16,-0.68,0.04,0.01,0.14,1373,2019-03-25 16:52:17:651
1.01,2.38,9.87,0.25,0.06,0.23,-0.01,0.0,0.1,1378,2019-03-25 16:52:17:656
1.01,2.38,9.87,0.25,0.06,0.23,-0.01,0.0,0.1,1383,2019-03-25 16:52:17:661
1.01,2.38,9.87,0.25,0.06,0.23,-0.01,0.0,0.1,1388,2019-03-25 16:52:17:666
1.01,2.38,9.87,0.25,0.06,0.23,-0.01,0.0,0.1,1393,2019-03-25 16:52:17:671
0.89,1.88,9.66,0.11,-0.44,-0.01,-0.03,0.01,0.09,1398,2019-03-25 16:52:17:676
0.89,1.88,9.66,0.11,-0.44,-0.01,-0.03,0.01,0.09,1403,2019-03-25 16:52:17:681
0.89,1.88,9.66,0.11,-0.44,-0.01,-0.03,0.01,0.09,1408,2019-03-25 16:52:17:686
0.89,1.88,9.66,0.11,-0.44,-0.01,-0.03,0.01,0.09,1413,2019-03-25 16:52:17:691
0.55,2.13,10.58,-0.18,-0.16,0.85,0.0,0.0,0.11,1418,2019-03-25 16:52:17:696
0.55,2.13,10.58,-0.18,-0.16,0.85,0.0,0.0,0.11,1423,2019-03-25 16:52:17:701
0.55,2.13,10.58,-0.18,-0.16,0.85,0.0,0.0,0.11,1429,2019-03-25 16:52:17:707
0.55,2.13,10.58,-0.18,-0.16,0.85,0.0,0.0,0.11,1433,2019-03-25 16:52:17:711
-0.73,3.18,8.39,-1.38,0.82,-1.32,0.02,-0.02,0.1,1438,2019-03-25 16:52:17:716
-0.73,3.18,8.39,-1.38,0.82,-1.32,0.02,-0.02,0.1,1443,2019-03-25 16:52:17:721
-0.73,3.18,8.39,-1.38,0.82,-1.32,0.02,-0.02,0.1,1449,2019-03-25 16:52:17:727
-0.73,3.18,8.39,-1.38,0.82,-1.32,0.02,-0.02,0.1,1453,2019-03-25 16:52:17:731
-0.73,3.18,8.39,-1.38,0.82,-1.32,0.02,-0.02,0.1,1458,2019-03-25 16:52:17:736
-0.22,4.17,9.46,-0.71,1.72,-0.09,-0.01,0.03,0.17,1463,2019-03-25 16:52:17:741
-0.22,4.17,9.46,-0.71,1.72,-0.09,-0.01,0.03,0.17,1468,2019-03-25 16:52:17:746
-0.22,4.17,9.46,-0.71,1.72,-0.09,-0.01,0.03,0.17,1473,2019-03-25 16:52:17:751
-0.22,4.17,9.46,-0.71,1.72,-0.09,-0.01,0.03,0.17,1480,2019-03-25 16:52:17:758
-1.04,2.49,8.57,-1.35,-0.03,-0.97,-0.07,-0.01,0.16,1483,2019-03-25 16:52:17:761
-1.04,2.49,8.57,-1.35,-0.03,-0.97,-0.07,-0.01,0.16,1488,2019-03-25 16:52:17:766
-1.04,2.49,8.57,-1.35,-0.03,-0.97,-0.07,-0.01,0.16,1493,2019-03-25 16:52:17:771
0.45,2.25,14.02,0.24,-0.27,4.36,-0.12,-0.03,0.11,1498,2019-03-25 16:52:17:776
0.45,2.25,14.02,0.24,-0.27,4.36,-0.12,-0.03,0.11,1507,2019-03-25 16:52:17:785
0.45,2.25,14.02,0.24,-0.27,4.36,-0.12,-0.03,0.11,1515,2019-03-25 16:52:17:793
0.45,2.25,14.02,0.24,-0.27,4.36,-0.12,-0.03,0.11,1515,2019-03-25 16:52:17:793
0.45,2.25,14.02,0.24,-0.27,4.36,-0.12,-0.03,0.11,1518,2019-03-25 16:52:17:796
2.1,0.09,9.34,1.83,-2.34,-0.48,-0.19,0.0,0.0,1523,2019-03-25 16:52:17:801
2.1,0.09,9.34,1.83,-2.34,-0.48,-0.19,0.0,0.0,1528,2019-03-25 16:52:17:806
2.1,0.09,9.34,1.83,-2.34,-0.48,-0.19,0.0,0.0,1533,2019-03-25 16:52:17:811
2.58,-2.76,9.93,2.21,-4.7,0.37,-0.02,0.04,-0.11,1545,2019-03-25 16:52:17:823
2.58,-2.76,9.93,2.21,-4.7,0.37,-0.02,0.04,-0.11,1549,2019-03-25 16:52:17:827
2.58,-2.76,9.93,2.21,-4.7,0.37,-0.2,0.03,-0.08,1550,2019-03-25 16:52:17:828
2.58,-2.76,9.93,2.21,-4.7,0.37,-0.2,0.03,-0.08,1553,2019-03-25 16:52:17:831
2.58,-2.76,9.93,2.21,-4.7,0.37,-0.2,0.03,-0.08,1558,2019-03-25 16:52:17:836
2.58,-2.76,9.93,2.21,-4.7,0.37,-0.2,0.03,-0.08,1564,2019-03-25 16:52:17:842
2.58,-2.76,9.93,2.21,-4.7,0.37,-0.2,0.03,-0.08,1568,2019-03-25 16:52:17:846
2.58,-2.76,9.93,2.21,-4.7,0.37,-0.2,0.03,-0.08,1573,2019-03-25 16:52:17:851
-0.74,-3.51,9.6,-1.17,-4.44,-0.21,-0.08,0.09,-0.04,1578,2019-03-25 16:52:17:856
-0.74,-3.51,9.6,-1.17,-4.44,-0.21,-0.08,0.09,-0.04,1583,2019-03-25 16:52:17:861
-0.74,-3.51,9.6,-1.17,-4.44,-0.21,-0.08,0.09,-0.04,1588,2019-03-25 16:52:17:866
-0.74,-3.51,9.6,-1.17,-4.44,-0.21,-0.08,0.09,-0.04,1594,2019-03-25 16:52:17:872
-0.74,-3.51,9.6,-1.17,-4.44,-0.21,-0.08,0.09,-0.04,1598,2019-03-25 16:52:17:876
-0.74,-3.51,9.6,-1.17,-4.44,-0.21,-0.08,0.09,-0.04,1603,2019-03-25 16:52:17:881
0.57,-0.94,7.63,-0.78,-2.01,2.52,-0.06,0.02,0.09,1610,2019-03-25 16:52:17:888
0.57,-0.94,7.63,-0.78,-2.01,2.52,-0.06,0.02,0.09,1613,2019-03-25 16:52:17:891
0.57,-0.94,7.63,-0.78,-2.01,2.52,-0.06,0.02,0.09,1618,2019-03-25 16:52:17:896
-1.71,0.77,8.94,-2.05,0.35,-0.88,0.05,0.07,0.23,1624,2019-03-25 16:52:17:902
-1.71,0.77,8.94,-2.05,0.35,-0.88,0.05,0.07,0.23,1628,2019-03-25 16:52:17:906
-1.71,0.77,8.94,-2.05,0.35,-0.88,0.05,0.07,0.23,1633,2019-03-25 16:52:17:911
-1.32,3.23,9.62,-1.51,2.69,-0.44,0.03,0.02,0.29,1638,2019-03-25 16:52:17:916
-1.32,3.23,9.62,-1.51,2.69,-0.44,0.03,0.02,0.29,1643,2019-03-25 16:52:17:921
-1.32,3.23,9.62,-1.51,2.69,-0.44,0.03,0.02,0.29,1648,2019-03-25 16:52:17:926
-1.32,3.23,9.62,-1.51,2.69,-0.44,0.03,0.02,0.29,1653,2019-03-25 16:52:17:931
-1.32,3.23,9.62,-1.51,2.69,-0.44,0.03,0.02,0.29,1658,2019-03-25 16:52:17:936
-0.93,3.41,10.29,-1.09,2.9,0.18,0.06,0.02,0.27,1663,2019-03-25 16:52:17:941
-0.93,3.41,10.29,-1.09,2.9,0.18,0.06,0.02,0.27,1668,2019-03-25 16:52:17:946
-0.93,3.41,10.29,-1.09,2.9,0.18,0.06,0.02,0.27,1673,2019-03-25 16:52:17:951
-0.93,3.41,10.29,-1.09,2.9,0.18,0.06,0.02,0.27,1678,2019-03-25 16:52:17:956
0.67,3.36,10.61,0.4,2.78,0.46,0.05,0.0,0.19,1683,2019-03-25 16:52:17:961
0.67,3.36,10.61,0.4,2.78,0.46,0.05,0.0,0.19,1687,2019-03-25 16:52:17:965
0.67,3.36,10.61,0.4,2.78,0.46,0.05,0.0,0.19,1693,2019-03-25 16:52:17:971
0.67,3.36,10.61,0.4,2.78,0.46,0.05,0.0,0.19,1698,2019-03-25 16:52:17:976
0.42,1.57,9.59,0.11,1.02,-0.31,0.07,-0.02,0.11,1702,2019-03-25 16:52:17:980
0.42,1.57,9.59,0.11,1.02,-0.31,0.07,-0.02,0.11,1708,2019-03-25 16:52:17:986
0.42,1.57,9.59,0.11,1.02,-0.31,0.07,-0.02,0.11,1713,2019-03-25 16:52:17:991
0.42,1.57,9.59,0.11,1.02,-0.31,0.07,-0.02,0.11,1719,2019-03-25 16:52:17:997
1.6,0.6,9.57,1.31,0.02,-0.34,0.04,0.0,0.1,1724,2019-03-25 16:52:18:002
1.6,0.6,9.57,1.31,0.02,-0.34,0.04,0.0,0.1,1728,2019-03-25 16:52:18:006
1.6,0.6,9.57,1.31,0.02,-0.34,0.04,0.0,0.1,1733,2019-03-25 16:52:18:011
1.6,0.6,9.57,1.31,0.02,-0.34,0.04,0.0,0.1,1738,2019-03-25 16:52:18:016
-0.09,-0.88,9.97,-0.23,-1.6,-0.2,0.07,0.0,0.12,1743,2019-03-25 16:52:18:021
-0.09,-0.88,9.97,-0.23,-1.6,-0.2,0.07,0.0,0.12,1748,2019-03-25 16:52:18:026
-0.09,-0.88,9.97,-0.23,-1.6,-0.2,0.07,0.0,0.12,1754,2019-03-25 16:52:18:032
-0.09,-0.88,9.97,-0.23,-1.6,-0.2,0.07,0.0,0.17,1758,2019-03-25 16:52:18:036
0.42,-0.73,7.04,-0.29,-0.8,1.44,0.02,0.0,0.17,1764,2019-03-25 16:52:18:042
0.42,-0.73,7.04,-0.29,-0.8,1.44,0.02,0.0,0.17,1769,2019-03-25 16:52:18:047
0.42,-0.73,7.04,-0.29,-0.8,1.44,0.02,0.0,0.17,1773,2019-03-25 16:52:18:051
0.42,-0.73,7.04,-0.29,-0.8,1.44,0.02,0.0,0.17,1778,2019-03-25 16:52:18:056
0.42,-0.73,7.04,-0.29,-0.8,1.44,0.02,0.0,0.17,1782,2019-03-25 16:52:18:060
-0.95,-2.04,10.42,-0.73,-2.96,0.2,0.04,0.0,0.17,1787,2019-03-25 16:52:18:065
-0.95,-2.04,10.42,-0.73,-2.96,0.2,0.04,0.0,0.17,1793,2019-03-25 16:52:18:071
-0.95,-2.04,10.42,-0.73,-2.96,0.2,0.04,0.0,0.17,1798,2019-03-25 16:52:18:076
-0.01,-0.97,7.4,0.12,-1.99,-2.89,0.11,0.05,0.17,1803,2019-03-25 16:52:18:081
-0.01,-0.97,7.4,0.12,-1.99,-2.89,0.11,0.05,0.17,1808,2019-03-25 16:52:18:086
-0.01,-0.97,7.4,0.12,-1.99,-2.89,0.11,0.05,0.17,1814,2019-03-25 16:52:18:092
-0.01,-0.97,7.4,0.12,-1.99,-2.89,0.11,0.05,0.17,1818,2019-03-25 16:52:18:096
0.55,0.04,11.39,0.38,-0.62,1.16,0.0,0.02,0.19,1826,2019-03-25 16:52:18:104
0.55,0.04,11.39,0.38,-0.62,1.16,0.0,0.02,0.19,1829,2019-03-25 16:52:18:107
0.55,0.04,11.39,0.38,-0.62,1.16,0.0,0.02,0.19,1833,2019-03-25 16:52:18:111
0.55,0.04,11.39,0.38,-0.62,1.16,0.0,0.02,0.19,1838,2019-03-25 16:52:18:116
1.8,-0.04,9.69,1.38,-0.39,-0.58,0.02,0.01,0.14,1843,2019-03-25 16:52:18:121
1.8,-0.04,9.69,1.38,-0.39,-0.58,0.02,0.01,0.14,1848,2019-03-25 16:52:18:126
1.8,-0.04,9.69,1.38,-0.39,-0.58,0.02,0.01,0.14,1853,2019-03-25 16:52:18:131
1.8,-0.04,9.69,1.38,-0.39,-0.58,0.02,0.01,0.14,1858,2019-03-25 16:52:18:136
0.6,0.72,10.48,0.12,0.7,0.23,0.01,-0.02,0.08,1863,2019-03-25 16:52:18:141
0.6,0.72,10.48,0.12,0.7,0.23,0.01,-0.02,0.08,1868,2019-03-25 16:52:18:146
0.6,0.72,10.48,0.12,0.7,0.23,0.01,-0.02,0.08,1873,2019-03-25 16:52:18:151
0.6,0.72,10.48,0.12,0.7,0.23,0.01,-0.02,0.08,1879,2019-03-25 16:52:18:157
1.47,1.2,9.81,0.93,1.38,-0.38,-0.01,-0.01,0.02,1884,2019-03-25 16:52:18:162
1.47,1.2,9.81,0.93,1.38,-0.38,-0.01,-0.01,0.02,1888,2019-03-25 16:52:18:166
1.47,1.2,9.81,0.93,1.38,-0.38,-0.01,-0.01,0.02,1893,2019-03-25 16:52:18:171
1.44,0.74,10.51,0.93,1.38,-0.38,-0.01,-0.01,0.02,1898,2019-03-25 16:52:18:176
1.44,0.74,10.51,0.88,0.93,0.29,0.03,-0.04,-0.03,1903,2019-03-25 16:52:18:181
1.44,0.74,10.51,0.88,0.93,0.29,0.03,-0.04,-0.03,1908,2019-03-25 16:52:18:186
1.44,0.74,10.51,0.88,0.93,0.29,0.03,-0.04,-0.03,1913,2019-03-25 16:52:18:191
1.72,0.77,10.11,0.88,0.93,0.29,0.03,-0.04,-0.03,1919,2019-03-25 16:52:18:197
1.72,0.77,10.11,1.06,0.8,-0.1,0.0,-0.02,-0.06,1923,2019-03-25 16:52:18:201
1.72,0.77,10.11,1.06,0.8,-0.1,0.0,-0.02,-0.06,1929,2019-03-25 16:52:18:207
1.72,0.77,10.11,1.06,0.8,-0.1,0.0,-0.02,-0.06,1934,2019-03-25 16:52:18:212
1.72,0.77,10.11,1.06,0.8,-0.1,0.0,-0.02,-0.06,1939,2019-03-25 16:52:18:217
1.72,0.77,10.11,1.06,0.8,-0.1,0.0,-0.02,-0.06,1943,2019-03-25 16:52:18:221
0.69,0.74,12.86,-0.09,0.72,2.69,0.0,-0.03,-0.09,1948,2019-03-25 16:52:18:226
0.69,0.74,12.86,-0.09,0.72,2.69,0.0,-0.03,-0.09,1953,2019-03-25 16:52:18:231
0.69,0.74,12.86,-0.09,0.72,2.69,0.0,-0.03,-0.09,1959,2019-03-25 16:52:18:237
0.69,0.74,12.86,-0.09,0.72,2.69,0.0,-0.03,-0.09,1963,2019-03-25 16:52:18:241
0.69,0.74,12.86,0.14,-0.48,-1.33,0.05,0.0,-0.13,1968,2019-03-25 16:52:18:246
0.69,0.74,12.86,0.14,-0.48,-1.33,0.05,0.0,-0.13,1973,2019-03-25 16:52:18:251
0.49,-0.32,9.07,0.14,-0.48,-1.33,0.06,-0.02,-0.14,1978,2019-03-25 16:52:18:256
0.49,-0.32,9.07,0.14,-0.48,-1.33,0.06,-0.02,-0.14,1983,2019-03-25 16:52:18:261
0.49,-0.32,9.07,-1.6,-2.39,0.8,0.06,-0.02,-0.14,1988,2019-03-25 16:52:18:266
0.49,-0.32,9.07,-1.6,-2.39,0.8,0.06,-0.02,-0.14,1993,2019-03-25 16:52:18:271
-0.54,-1.24,9.92,-1.51,-1.47,-0.08,0.02,-0.01,-0.15,1998,2019-03-25 16:52:18:276
-0.54,-1.24,9.92,-1.51,-1.47,-0.08,0.02,-0.01,-0.15,2004,2019-03-25 16:52:18:282
-0.54,-1.24,9.92,-1.51,-1.47,-0.08,0.02,-0.01,-0.15,2008,2019-03-25 16:52:18:286
-0.54,-1.24,9.92,-1.51,-1.47,-0.08,0.02,-0.01,-0.15,2013,2019-03-25 16:52:18:291
0.81,-0.47,10.22,-0.09,-0.64,0.17,-0.07,0.0,-0.09,2017,2019-03-25 16:52:18:295
0.81,-0.47,10.22,-0.09,-0.64,0.17,-0.07,0.0,-0.09,2023,2019-03-25 16:52:18:301
0.81,-0.47,10.22,-1.21,0.05,2.04,0.0,0.0,-0.09,2033,2019-03-25 16:52:18:311
0.81,-0.47,10.22,-1.21,0.05,2.04,0.0,0.0,-0.09,2034,2019-03-25 16:52:18:312
0.55,1.39,9.18,-1.21,0.05,2.04,0.0,0.0,-0.09,2038,2019-03-25 16:52:18:316
0.55,1.39,9.18,-1.21,0.05,2.04,0.03,0.03,-0.06,2043,2019-03-25 16:52:18:321
0.55,1.39,9.18,-1.21,0.05,2.04,0.03,0.03,-0.06,2050,2019-03-25 16:52:18:328
0.55,1.39,9.18,-1.21,0.05,2.04,0.03,0.03,-0.06,2054,2019-03-25 16:52:18:332
-0.03,3.74,11.17,-0.72,3.25,1.19,0.0,0.0,-0.06,2057,2019-03-25 16:52:18:335
-0.03,3.74,11.17,-0.72,3.25,1.19,0.0,0.0,-0.06,2063,2019-03-25 16:52:18:341
-0.03,3.74,11.17,-0.72,3.25,1.19,0.0,0.0,-0.06,2068,2019-03-25 16:52:18:346
-0.03,3.74,11.17,-0.72,3.25,1.19,0.0,0.0,-0.06,2073,2019-03-25 16:52:18:351
2.33,0.0,9.44,1.69,-0.52,-0.52,0.06,-0.01,-0.08,2078,2019-03-25 16:52:18:356
2.33,0.0,9.44,1.69,-0.52,-0.52,0.06,-0.01,-0.08,2083,2019-03-25 16:52:18:361
2.33,0.0,9.44,1.69,-0.52,-0.52,0.06,-0.01,-0.08,2088,2019-03-25 16:52:18:366
2.33,0.0,9.44,1.69,-0.52,-0.52,0.06,-0.01,-0.08,2093,2019-03-25 16:52:18:371
-0.07,0.54,10.13,1.69,-0.52,-0.52,-0.05,0.0,-0.02,2098,2019-03-25 16:52:18:376
-0.07,0.54,10.13,-0.71,0.11,0.19,-0.05,0.0,-0.02,2103,2019-03-25 16:52:18:381
-0.07,0.54,10.13,-0.71,0.11,0.19,-0.05,0.0,-0.02,2109,2019-03-25 16:52:18:387
-0.07,0.54,10.13,-0.71,0.11,0.19,-0.05,0.0,-0.02,2113,2019-03-25 16:52:18:391
-0.07,0.54,10.13,-0.71,0.11,0.19,-0.05,0.0,-0.02,2118,2019-03-25 16:52:18:396
-0.07,0.54,10.13,-0.71,0.11,0.19,-0.05,0.0,-0.02,2124,2019-03-25 16:52:18:402
-0.07,0.54,10.13,-0.71,0.11,0.19,-0.05,0.0,-0.02,2128,2019-03-25 16:52:18:406
0.05,0.3,9.85,-0.41,-0.1,-0.05,0.02,0.0,-0.04,2134,2019-03-25 16:52:18:412
0.05,0.3,9.85,-0.41,-0.1,-0.05,0.02,0.0,-0.04,2138,2019-03-25 16:52:18:416
0.05,0.3,9.85,-0.41,-0.1,-0.05,0.02,0.0,-0.04,2143,2019-03-25 16:52:18:421
0.05,0.3,9.85,-0.41,-0.1,-0.05,0.02,0.0,-0.04,2149,2019-03-25 16:52:18:427
0.05,0.3,9.85,-0.41,-0.1,-0.05,0.02,0.0,-0.04,2152,2019-03-25 16:52:18:430
-0.23,-0.55,10.5,-0.38,-0.81,0.68,0.0,0.01,0.03,2158,2019-03-25 16:52:18:436
-0.23,-0.55,10.5,-0.38,-0.81,0.68,0.0,0.01,0.03,2163,2019-03-25 16:52:18:441
-0.23,-0.55,10.5,-0.38,-0.81,0.68,0.0,0.01,0.03,2168,2019-03-25 16:52:18:446
-0.23,-0.55,10.5,-0.38,-0.81,0.68,0.0,0.01,0.03,2173,2019-03-25 16:52:18:451
-0.59,-0.73,8.39,-0.59,-0.92,-1.39,0.0,0.0,0.1,2178,2019-03-25 16:52:18:456
-0.59,-0.73,8.39,-0.59,-0.92,-1.39,0.0,0.0,0.1,2183,2019-03-25 16:52:18:461
-0.59,-0.73,8.39,-0.59,-0.92,-1.39,0.0,0.0,0.1,2188,2019-03-25 16:52:18:466
-0.59,-0.73,8.39,-0.59,-0.92,-1.39,0.0,0.0,0.1,2193,2019-03-25 16:52:18:471
0.07,-0.33,11.35,0.0,-0.65,1.47,-0.02,0.0,0.17,2198,2019-03-25 16:52:18:476
0.07,-0.33,11.35,0.0,-0.65,1.47,-0.02,0.0,0.17,2203,2019-03-25 16:52:18:481
0.07,-0.33,11.35,0.0,-0.65,1.47,-0.02,0.0,0.17,2212,2019-03-25 16:52:18:490
0.07,-0.33,11.35,0.0,-0.65,1.47,-0.02,0.0,0.17,2213,2019-03-25 16:52:18:491
0.07,-0.33,11.35,0.0,-0.65,1.47,-0.02,0.0,0.17,2218,2019-03-25 16:52:18:496
0.07,-0.33,11.35,0.0,-0.65,1.47,-0.02,0.0,0.17,2224,2019-03-25 16:52:18:502
0.49,-0.88,10.03,0.0,-0.65,1.47,-0.02,0.0,0.17,2228,2019-03-25 16:52:18:506
0.49,-0.88,10.03,0.0,-0.65,1.47,-0.02,0.0,0.17,2233,2019-03-25 16:52:18:511
0.49,-0.88,10.03,0.44,-1.24,0.12,0.01,0.03,0.22,2238,2019-03-25 16:52:18:516
0.0,0.63,9.89,0.44,-1.24,0.12,0.04,0.05,0.25,2248,2019-03-25 16:52:18:526
0.0,0.63,9.89,0.44,-1.24,0.12,0.04,0.05,0.25,2250,2019-03-25 16:52:18:528
0.0,0.63,9.89,0.44,-1.24,0.12,0.04,0.05,0.25,2253,2019-03-25 16:52:18:531
0.84,2.38,11.72,0.76,1.0,-1.38,-0.06,0.04,0.27,2258,2019-03-25 16:52:18:536
0.84,2.38,11.72,0.76,1.0,-1.38,-0.06,0.04,0.27,2264,2019-03-25 16:52:18:542
0.84,2.38,11.72,0.76,1.0,-1.38,-0.06,0.04,0.27,2268,2019-03-25 16:52:18:546
0.84,2.38,11.72,0.76,1.0,-1.38,-0.06,0.04,0.27,2273,2019-03-25 16:52:18:551
-0.27,2.06,11.18,-0.32,1.91,1.32,0.0,0.03,0.23,2279,2019-03-25 16:52:18:557
-0.27,2.06,11.18,-0.32,1.91,1.32,0.0,0.03,0.23,2283,2019-03-25 16:52:18:561
-0.27,2.06,11.18,-0.32,1.91,1.32,0.0,0.03,0.23,2288,2019-03-25 16:52:18:566
-0.27,2.06,11.18,-0.32,1.91,1.32,0.0,0.03,0.23,2295,2019-03-25 16:52:18:573
-0.27,2.06,11.18,-0.32,1.91,1.32,0.0,0.03,0.23,2299,2019-03-25 16:52:18:577
0.4,2.99,8.68,0.47,2.58,-1.14,-0.02,0.05,0.2,2303,2019-03-25 16:52:18:581
0.4,2.99,8.68,0.47,2.58,-1.14,-0.02,0.05,0.2,2314,2019-03-25 16:52:18:592
0.4,2.99,8.68,0.47,2.58,-1.14,-0.02,0.05,0.2,2316,2019-03-25 16:52:18:594
0.4,2.99,8.68,0.47,2.58,-1.14,-0.02,0.05,0.2,2318,2019-03-25 16:52:18:596
0.4,2.99,8.68,0.47,2.58,-1.14,-0.02,0.05,0.2,2323,2019-03-25 16:52:18:601
-0.1,3.19,9.44,-0.08,2.5,-0.38,-0.04,0.01,0.14,2328,2019-03-25 16:52:18:606
-0.1,3.19,9.44,-0.08,2.5,-0.38,-0.04,0.01,0.14,2333,2019-03-25 16:52:18:611
-0.1,3.19,9.44,-0.08,2.5,-0.38,-0.04,0.01,0.14,2339,2019-03-25 16:52:18:617
-0.1,3.19,9.44,-0.08,2.5,-0.38,-0.04,0.01,0.14,2343,2019-03-25 16:52:18:621
1.13,4.93,11.38,0.97,3.78,1.45,0.0,-0.01,0.09,2348,2019-03-25 16:52:18:626
1.13,4.93,11.38,0.97,3.78,1.45,0.0,-0.01,0.09,2352,2019-03-25 16:52:18:630
1.11,3.79,9.55,0.97,3.78,1.45,0.0,0.0,0.02,2358,2019-03-25 16:52:18:636
1.11,3.79,9.55,0.97,3.78,1.45,0.0,0.0,0.02,2363,2019-03-25 16:52:18:641
1.11,3.79,9.55,0.97,3.78,1.45,0.0,0.0,0.02,2368,2019-03-25 16:52:18:646
1.11,3.79,9.55,0.97,3.78,1.45,0.0,0.0,0.02,2373,2019-03-25 16:52:18:651
1.41,2.42,10.4,0.95,0.43,0.51,0.0,-0.03,-0.03,2378,2019-03-25 16:52:18:656
1.41,2.42,10.4,0.95,0.43,0.51,0.0,-0.03,-0.03,2383,2019-03-25 16:52:18:661
1.41,2.42,10.4,0.95,0.43,0.51,0.0,-0.03,-0.03,2388,2019-03-25 16:52:18:666
1.41,2.42,10.4,0.95,0.43,0.51,0.0,-0.03,-0.03,2393,2019-03-25 16:52:18:671
1.41,2.42,10.4,0.95,0.43,0.51,0.0,-0.03,-0.03,2398,2019-03-25 16:52:18:676
0.36,2.31,10.85,-0.22,0.08,1.1,-0.11,0.0,-0.04,2403,2019-03-25 16:52:18:681
0.36,2.31,10.85,-0.22,0.08,1.1,-0.11,0.0,-0.04,2408,2019-03-25 16:52:18:686
0.36,2.31,10.85,-0.22,0.08,1.1,-0.11,0.0,-0.04,2413,2019-03-25 16:52:18:691
1.91,2.91,11.44,1.2,0.36,1.64,-0.08,0.0,-0.04,2418,2019-03-25 16:52:18:696
1.91,2.91,11.44,1.2,0.36,1.64,-0.08,0.0,-0.04,2424,2019-03-25 16:52:18:702
1.91,2.91,11.44,1.2,0.36,1.64,-0.08,0.0,-0.04,2428,2019-03-25 16:52:18:706
1.91,2.91,11.44,1.2,0.36,1.64,-0.08,0.0,-0.04,2433,2019-03-25 16:52:18:711
0.36,1.43,7.28,-0.39,-1.24,-2.38,-0.06,0.0,-0.03,2438,2019-03-25 16:52:18:716
0.36,1.43,7.28,-0.39,-1.24,-2.38,-0.06,0.0,-0.03,2443,2019-03-25 16:52:18:721
0.36,1.43,7.28,-0.39,-1.24,-2.38,-0.06,0.0,-0.03,2449,2019-03-25 16:52:18:727
0.36,1.43,7.28,-0.39,-1.24,-2.38,-0.06,0.0,-0.03,2454,2019-03-25 16:52:18:732
-1.32,1.21,15.66,-1.93,-1.48,5.71,-0.13,-0.08,-0.02,2458,2019-03-25 16:52:18:736
-1.32,1.21,15.66,-1.93,-1.48,5.71,-0.13,-0.08,-0.02,2463,2019-03-25 16:52:18:741
-1.32,1.21,15.66,-1.93,-1.48,5.71,-0.13,-0.08,-0.02,2468,2019-03-25 16:52:18:746
-1.32,1.21,15.66,-1.93,-1.48,5.71,-0.13,-0.08,-0.02,2473,2019-03-25 16:52:18:751
0.21,-0.46,11.03,-0.36,-2.99,0.96,-0.1,0.02,-0.04,2478,2019-03-25 16:52:18:756
0.21,-0.46,11.03,-0.36,-2.99,0.96,-0.1,0.02,-0.04,2483,2019-03-25 16:52:18:761
0.21,-0.46,11.03,-0.36,-2.99,0.96,-0.1,0.02,-0.04,2488,2019-03-25 16:52:18:766
0.21,-0.46,11.03,-0.36,-2.99,0.96,-0.1,0.02,-0.04,2493,2019-03-25 16:52:18:771
0.21,-0.46,11.03,-0.36,-2.99,0.96,-0.1,0.02,-0.04,2498,2019-03-25 16:52:18:776
0.54,-1.52,13.5,-0.36,-2.99,0.96,-0.01,-0.02,-0.11,2506,2019-03-25 16:52:18:784
0.54,-1.52,13.5,-0.07,-3.59,3.4,-0.01,-0.02,-0.11,2508,2019-03-25 16:52:18:786
0.54,-1.52,13.5,-0.07,-3.59,3.4,-0.01,-0.02,-0.11,2513,2019-03-25 16:52:18:791
0.54,-1.52,13.5,-0.07,-3.59,3.4,-0.01,-0.02,-0.11,2518,2019-03-25 16:52:18:796
0.54,-1.52,13.5,-0.07,-3.59,3.4,-0.01,-0.02,-0.11,2523,2019-03-25 16:52:18:801
2.29,0.13,9.14,1.46,-1.62,-1.28,-0.03,0.02,-0.15,2531,2019-03-25 16:52:18:809
2.29,0.13,9.14,1.46,-1.62,-1.28,-0.03,0.02,-0.15,2533,2019-03-25 16:52:18:811
2.29,0.13,9.14,1.46,-1.62,-1.28,-0.02,0.0,-0.01,2539,2019-03-25 16:52:18:817
2.29,0.13,9.14,1.46,-1.62,-1.28,-0.02,0.0,-0.01,2544,2019-03-25 16:52:18:822
2.29,0.13,9.14,1.46,-1.62,-1.28,-0.02,0.0,-0.01,2549,2019-03-25 16:52:18:827
2.29,0.13,9.14,1.46,-1.62,-1.28,-0.02,0.0,-0.01,2553,2019-03-25 16:52:18:831
2.29,0.13,9.14,1.46,-1.62,-1.28,-0.02,0.0,-0.01,2558,2019-03-25 16:52:18:836
0.48,3.06,11.46,-0.18,2.01,1.17,0.0,0.04,0.06,2563,2019-03-25 16:52:18:841
0.48,3.06,11.46,-0.18,2.01,1.17,0.0,0.04,0.06,2567,2019-03-25 16:52:18:845
0.48,3.06,11.46,-0.18,2.01,1.17,0.0,0.04,0.06,2573,2019-03-25 16:52:18:851
0.48,3.06,11.46,-0.18,2.01,1.17,0.0,0.04,0.06,2579,2019-03-25 16:52:18:857
1.69,3.06,7.0,1.09,1.91,-3.4,0.14,0.1,0.17,2584,2019-03-25 16:52:18:862
1.69,3.06,7.0,1.09,1.91,-3.4,0.14,0.1,0.17,2589,2019-03-25 16:52:18:867
1.69,3.06,7.0,1.09,1.91,-3.4,0.14,0.1,0.17,2593,2019-03-25 16:52:18:871
1.69,3.06,7.0,1.09,1.91,-3.4,0.14,0.1,0.17,2598,2019-03-25 16:52:18:876
0.16,3.85,12.34,-0.26,2.57,1.83,0.06,0.03,0.23,2604,2019-03-25 16:52:18:882
0.16,3.85,12.34,-0.26,2.57,1.83,0.06,0.03,0.23,2608,2019-03-25 16:52:18:886
0.16,3.85,12.34,-0.26,2.57,1.83,0.06,0.03,0.23,2614,2019-03-25 16:52:18:892
-1.36,2.6,8.47,-1.54,1.29,-1.82,0.08,0.0,0.15,2620,2019-03-25 16:52:18:898
-1.36,2.6,8.47,-1.54,1.29,-1.82,0.08,0.0,0.15,2629,2019-03-25 16:52:18:907
-1.36,2.6,8.47,-1.54,1.29,-1.82,0.08,0.0,0.15,2629,2019-03-25 16:52:18:907
-1.36,2.6,8.47,-1.54,1.29,-1.82,0.08,0.0,0.15,2633,2019-03-25 16:52:18:911
-1.36,2.6,8.47,-1.54,1.29,-1.82,0.08,0.0,0.15,2638,2019-03-25 16:52:18:916
0.18,1.14,7.44,0.06,-0.18,-2.86,0.14,-0.04,0.01,2643,2019-03-25 16:52:18:921
0.18,1.14,7.44,0.06,-0.18,-2.86,0.14,-0.04,0.01,2648,2019-03-25 16:52:18:926
0.18,1.14,7.44,0.06,-0.18,-2.86,0.14,-0.04,0.01,2653,2019-03-25 16:52:18:931
0.18,1.14,7.44,0.06,-0.18,-2.86,0.14,-0.04,0.01,2658,2019-03-25 16:52:18:936
1.97,0.14,11.64,1.62,-1.23,1.29,0.1,0.0,-0.05,2662,2019-03-25 16:52:18:940
1.97,0.14,11.64,1.62,-1.23,1.29,0.1,0.0,-0.05,2669,2019-03-25 16:52:18:947
1.97,0.14,11.64,1.62,-1.23,1.29,0.1,0.0,-0.05,2673,2019-03-25 16:52:18:951
1.97,0.14,11.64,1.62,-1.23,1.29,0.1,0.0,-0.05,2679,2019-03-25 16:52:18:957
1.11,0.5,6.31,0.62,-0.84,-3.67,0.02,-0.06,-0.06,2683,2019-03-25 16:52:18:961
1.11,0.5,6.31,0.62,-0.84,-3.67,0.02,-0.06,-0.06,2690,2019-03-25 16:52:18:968
1.11,0.5,6.31,0.62,-0.84,-3.67,0.02,-0.06,-0.06,2693,2019-03-25 16:52:18:971
1.11,0.5,6.31,0.62,-0.84,-3.67,0.02,-0.06,-0.06,2698,2019-03-25 16:52:18:976
0.57,0.07,8.28,0.06,-1.5,-1.7,0.1,-0.04,-0.1,2703,2019-03-25 16:52:18:981
0.57,0.07,8.28,0.06,-1.5,-1.7,0.1,-0.04,-0.1,2708,2019-03-25 16:52:18:986
0.57,0.07,8.28,0.06,-1.5,-1.7,0.1,-0.04,-0.1,2714,2019-03-25 16:52:18:992
0.57,0.07,8.28,0.06,-1.5,-1.7,0.1,-0.04,-0.1,2718,2019-03-25 16:52:18:996
1.69,0.23,13.13,1.33,-1.3,3.46,-0.01,-0.08,-0.03,2723,2019-03-25 16:52:19:001
1.69,0.23,13.13,1.33,-1.3,3.46,-0.01,-0.08,-0.03,2728,2019-03-25 16:52:19:006
1.69,0.23,13.13,1.33,-1.3,3.46,-0.01,-0.08,-0.03,2733,2019-03-25 16:52:19:011
1.69,0.23,13.13,1.33,-1.3,3.46,-0.01,-0.08,-0.03,2738,2019-03-25 16:52:19:016
1.44,0.15,15.26,1.08,-1.38,4.89,-0.13,-0.02,-0.02,2744,2019-03-25 16:52:19:022
1.44,0.15,15.26,1.08,-1.38,4.89,-0.13,-0.02,-0.02,2748,2019-03-25 16:52:19:026
1.44,0.15,15.26,1.08,-1.38,4.89,-0.13,-0.02,-0.02,2753,2019-03-25 16:52:19:031
1.44,0.15,15.26,1.08,-1.38,4.89,-0.13,-0.02,-0.02,2759,2019-03-25 16:52:19:037
1.44,0.15,15.26,1.08,-1.38,4.89,-0.13,-0.02,-0.02,2763,2019-03-25 16:52:19:041
-0.35,-0.84,12.85,-0.75,-2.2,2.43,0.24,0.01,-0.09,2769,2019-03-25 16:52:19:047
-0.35,-0.84,12.85,-0.75,-2.2,2.43,0.24,0.01,-0.09,2776,2019-03-25 16:52:19:054
-0.35,-0.84,12.85,-0.75,-2.2,2.43,0.24,0.01,-0.09,2777,2019-03-25 16:52:19:055
0.79,-0.57,10.75,0.41,-1.49,0.38,0.07,0.02,0.0,2784,2019-03-25 16:52:19:062
0.79,-0.57,10.75,0.41,-1.49,0.38,0.07,0.02,0.0,2788,2019-03-25 16:52:19:066
0.79,-0.57,10.75,0.41,-1.49,0.38,0.07,0.02,0.0,2793,2019-03-25 16:52:19:071
0.79,-0.57,10.75,0.41,-1.49,0.38,0.07,0.02,0.0,2798,2019-03-25 16:52:19:076
0.79,-0.57,10.75,0.41,-1.49,0.38,0.07,0.02,0.0,2803,2019-03-25 16:52:19:081
2.74,0.83,19.02,2.11,0.21,7.84,0.06,0.01,0.05,2808,2019-03-25 16:52:19:086
2.74,0.83,19.02,2.11,0.21,7.84,0.06,0.01,0.05,2813,2019-03-25 16:52:19:091
2.74,0.83,19.02,2.11,0.21,7.84,0.06,0.01,0.05,2818,2019-03-25 16:52:19:096
2.74,0.83,19.02,2.11,0.21,7.84,0.06,0.01,0.05,2823,2019-03-25 16:52:19:101
1.8,-1.11,4.32,1.03,-1.35,-6.79,0.18,0.07,0.03,2828,2019-03-25 16:52:19:106
1.8,-1.11,4.32,1.03,-1.35,-6.79,0.18,0.07,0.03,2833,2019-03-25 16:52:19:111
1.8,-1.11,4.32,1.03,-1.35,-6.79,0.18,0.07,0.03,2840,2019-03-25 16:52:19:118
1.8,-1.11,4.32,1.03,-1.35,-6.79,0.18,0.07,0.03,2843,2019-03-25 16:52:19:121
-2.12,1.82,11.78,-2.73,1.73,0.67,0.17,-0.04,0.04,2848,2019-03-25 16:52:19:126
-2.12,1.82,11.78,-2.73,1.73,0.67,0.17,-0.04,0.04,2853,2019-03-25 16:52:19:131
-2.12,1.82,11.78,-2.73,1.73,0.67,0.17,-0.04,0.04,2858,2019-03-25 16:52:19:136
3.23,-0.24,7.75,2.69,-0.32,-3.27,0.1,0.03,0.05,2863,2019-03-25 16:52:19:141
3.23,-0.24,7.75,2.69,-0.32,-3.27,0.1,0.03,0.05,2868,2019-03-25 16:52:19:146
3.23,-0.24,7.75,2.69,-0.32,-3.27,0.1,0.03,0.05,2873,2019-03-25 16:52:19:151
1.24,-0.15,12.87,0.72,-0.19,1.66,0.03,-0.02,0.06,2878,2019-03-25 16:52:19:156
1.24,-0.15,12.87,0.72,-0.19,1.66,0.03,-0.02,0.06,2884,2019-03-25 16:52:19:162
1.24,-0.15,12.87,0.72,-0.19,1.66,0.03,-0.02,0.06,2889,2019-03-25 16:52:19:167
1.24,-0.15,12.87,0.72,-0.19,1.66,0.03,-0.02,0.06,2893,2019-03-25 16:52:19:171
1.57,-0.95,9.44,0.97,-0.93,-1.68,0.12,0.0,-0.03,2898,2019-03-25 16:52:19:176
1.57,-0.95,9.44,0.97,-0.93,-1.68,0.12,0.0,-0.03,2903,2019-03-25 16:52:19:181
1.57,-0.95,9.44,0.97,-0.93,-1.68,0.12,0.0,-0.03,2908,2019-03-25 16:52:19:186
1.57,-0.95,9.44,0.97,-0.93,-1.68,0.12,0.0,-0.03,2914,2019-03-25 16:52:19:192
1.57,-0.95,9.44,0.97,-0.93,-1.68,0.12,0.0,-0.03,2919,2019-03-25 16:52:19:197
1.57,-0.95,9.44,0.97,-0.93,-1.68,0.12,0.0,-0.03,2922,2019-03-25 16:52:19:200
1.91,-0.02,10.85,1.2,0.0,-0.44,0.05,-0.02,-0.04,2928,2019-03-25 16:52:19:206
1.91,-0.02,10.85,1.2,0.0,-0.44,0.05,-0.02,-0.04,2933,2019-03-25 16:52:19:211
1.91,-0.02,10.85,1.2,0.0,-0.44,0.09,-0.01,-0.09,2939,2019-03-25 16:52:19:217
0.55,-0.84,10.14,-0.17,-0.67,-0.47,0.09,-0.01,-0.09,2943,2019-03-25 16:52:19:221
0.55,-0.84,10.14,-0.17,-0.67,-0.47,0.09,-0.01,-0.09,2950,2019-03-25 16:52:19:228
0.55,-0.84,10.14,-0.17,-0.67,-0.47,0.09,-0.01,-0.09,2953,2019-03-25 16:52:19:231
1.17,-0.71,7.53,0.37,-0.54,-2.82,0.05,-0.02,-0.12,2959,2019-03-25 16:52:19:237
1.17,-0.71,7.53,0.37,-0.54,-2.82,0.05,-0.02,-0.12,2963,2019-03-25 16:52:19:241
1.17,-0.71,7.53,0.37,-0.54,-2.82,0.05,-0.02,-0.12,2968,2019-03-25 16:52:19:246
1.17,-0.71,7.53,0.37,-0.54,-2.82,0.05,-0.02,-0.12,2973,2019-03-25 16:52:19:251
0.75,0.93,11.74,-0.13,1.02,1.03,-0.03,-0.03,-0.13,2979,2019-03-25 16:52:19:257
0.75,0.93,11.74,-0.13,1.02,1.03,-0.03,-0.03,-0.13,2984,2019-03-25 16:52:19:262
0.75,0.93,11.74,-0.13,1.02,1.03,-0.03,-0.03,-0.13,2989,2019-03-25 16:52:19:267
0.75,0.93,11.74,-0.13,1.02,1.03,-0.03,-0.03,-0.13,2993,2019-03-25 16:52:19:271
0.75,0.93,11.74,-0.13,1.02,1.03,-0.03,-0.03,-0.13,3000,2019-03-25 16:52:19:278
0.75,0.93,11.74,-0.13,1.02,1.03,-0.03,-0.03,-0.13,3003,2019-03-25 16:52:19:281
1.36,-0.57,2.26,-0.13,1.02,1.03,0.09,0.05,-0.13,3008,2019-03-25 16:52:19:286
1.36,-0.57,2.26,-0.13,1.02,1.03,0.09,0.05,-0.13,3013,2019-03-25 16:52:19:291
1.36,-0.57,2.26,-0.13,1.02,1.03,0.09,0.05,-0.13,3017,2019-03-25 16:52:19:295
1.08,-0.95,8.56,0.65,-0.45,-7.33,0.13,0.04,-0.16,3023,2019-03-25 16:52:19:301
1.08,-0.95,8.56,0.65,-0.45,-7.33,0.13,0.04,-0.16,3028,2019-03-25 16:52:19:306
1.08,-0.95,8.56,0.65,-0.45,-7.33,0.13,0.04,-0.16,3033,2019-03-25 16:52:19:311
0.36,-0.63,9.1,-0.5,-0.58,-0.79,0.09,0.04,-0.16,3038,2019-03-25 16:52:19:316
0.36,-0.63,9.1,-0.5,-0.58,-0.79,0.09,0.04,-0.16,3043,2019-03-25 16:52:19:321
0.36,-0.63,9.1,-0.5,-0.58,-0.79,0.09,0.04,-0.16,3048,2019-03-25 16:52:19:326
0.36,-0.63,9.1,-0.5,-0.58,-0.79,0.09,0.04,-0.16,3054,2019-03-25 16:52:19:332
0.46,-2.01,9.67,-0.25,-1.67,-0.21,0.01,0.01,-0.06,3058,2019-03-25 16:52:19:336
0.46,-2.01,9.67,-0.25,-1.67,-0.21,0.01,0.01,-0.06,3065,2019-03-25 16:52:19:343
0.46,-2.01,9.67,-0.25,-1.67,-0.21,0.01,0.01,-0.06,3068,2019-03-25 16:52:19:346
0.46,-2.01,9.67,-0.25,-1.67,-0.21,0.01,0.01,-0.06,3073,2019-03-25 16:52:19:351
-5.19,-0.19,12.22,-5.46,0.36,2.29,0.0,0.0,0.1,3079,2019-03-25 16:52:19:357
-5.19,-0.19,12.22,-5.46,0.36,2.29,0.0,0.0,0.1,3083,2019-03-25 16:52:19:361
-5.19,-0.19,12.22,-5.46,0.36,2.29,0.0,0.0,0.1,3089,2019-03-25 16:52:19:367
-5.19,-0.19,12.22,-5.46,0.36,2.29,0.0,0.0,0.1,3094,2019-03-25 16:52:19:372
0.52,-0.3,4.06,0.32,0.09,-5.83,0.19,0.09,0.35,3098,2019-03-25 16:52:19:376
0.52,-0.3,4.06,0.32,0.09,-5.83,0.19,0.09,0.35,3103,2019-03-25 16:52:19:381
0.52,-0.3,4.06,0.32,0.09,-5.83,0.19,0.09,0.35,3108,2019-03-25 16:52:19:386
0.52,-0.3,4.06,0.32,0.09,-5.83,0.19,0.09,0.35,3113,2019-03-25 16:52:19:391
0.55,2.03,9.85,0.45,2.29,0.07,-0.15,0.02,0.39,3118,2019-03-25 16:52:19:396
0.55,2.03,9.85,0.45,2.29,0.07,-0.15,0.02,0.39,3123,2019-03-25 16:52:19:401
0.55,2.03,9.85,0.45,2.29,0.07,-0.15,0.02,0.39,3128,2019-03-25 16:52:19:406
0.55,2.03,9.85,0.45,2.29,0.07,-0.15,0.02,0.39,3133,2019-03-25 16:52:19:411
0.49,0.88,6.92,0.57,1.03,-3.03,-0.01,0.0,0.33,3139,2019-03-25 16:52:19:417
0.49,0.88,6.92,0.57,1.03,-3.03,-0.01,0.0,0.33,3144,2019-03-25 16:52:19:422
0.49,0.88,6.92,0.57,1.03,-3.03,-0.01,0.0,0.33,3148,2019-03-25 16:52:19:426
0.49,0.88,6.92,0.57,1.03,-3.03,-0.01,0.0,0.33,3153,2019-03-25 16:52:19:431
0.49,0.88,6.92,0.57,1.03,-3.03,-0.01,0.0,0.33,3158,2019-03-25 16:52:19:436
0.49,0.88,6.92,0.57,1.03,-3.03,-0.01,0.0,0.33,3163,2019-03-25 16:52:19:441
0.49,0.88,6.92,0.57,1.03,-3.03,-0.01,0.0,0.33,3168,2019-03-25 16:52:19:446
1.42,1.84,9.79,1.47,1.82,-0.04,-0.11,-0.06,0.27,3173,2019-03-25 16:52:19:451
1.42,1.84,9.79,1.47,1.82,-0.04,-0.11,-0.06,0.27,3178,2019-03-25 16:52:19:456
1.42,1.84,9.79,1.47,1.82,-0.04,-0.11,-0.06,0.27,3184,2019-03-25 16:52:19:462
1.42,1.84,9.79,1.47,1.82,-0.04,-0.11,-0.06,0.27,3188,2019-03-25 16:52:19:466
3.97,0.99,8.15,3.97,0.83,-1.42,-0.09,-0.02,0.19,3193,2019-03-25 16:52:19:471
3.97,0.99,8.15,3.97,0.83,-1.42,-0.09,-0.02,0.19,3198,2019-03-25 16:52:19:476
3.97,0.99,8.15,3.97,0.83,-1.42,-0.09,-0.02,0.19,3203,2019-03-25 16:52:19:481
3.97,0.99,8.15,3.97,0.83,-1.42,-0.09,-0.02,0.19,3208,2019-03-25 16:52:19:486
1.11,2.47,11.67,0.99,2.19,1.69,-0.05,0.02,0.14,3213,2019-03-25 16:52:19:491
1.11,2.47,11.67,0.99,2.19,1.69,-0.05,0.02,0.14,3219,2019-03-25 16:52:19:497
1.11,2.47,11.67,0.99,2.19,1.69,-0.05,0.02,0.14,3222,2019-03-25 16:52:19:500
1.11,2.47,11.67,0.99,2.19,1.69,-0.05,0.02,0.14,3228,2019-03-25 16:52:19:506
1.11,2.47,11.67,0.99,2.19,1.69,-0.05,0.02,0.14,3233,2019-03-25 16:52:19:511
0.73,0.22,5.85,0.49,-0.18,-3.96,0.02,-0.02,0.02,3238,2019-03-25 16:52:19:516
0.73,0.22,5.85,0.49,-0.18,-3.96,0.02,-0.02,0.02,3244,2019-03-25 16:52:19:522
0.73,0.22,5.85,0.49,-0.18,-3.96,0.02,-0.02,0.02,3247,2019-03-25 16:52:19:525
0.73,0.22,5.85,0.49,-0.18,-3.96,0.02,-0.02,0.02,3253,2019-03-25 16:52:19:531
0.04,1.79,11.16,-0.33,1.21,1.5,-0.09,-0.01,0.03,3258,2019-03-25 16:52:19:536
0.04,1.79,11.16,-0.33,1.21,1.5,-0.09,-0.01,0.03,3264,2019-03-25 16:52:19:542
0.04,1.79,11.16,-0.33,1.21,1.5,-0.09,-0.01,0.03,3268,2019-03-25 16:52:19:546
0.04,1.79,11.16,-0.33,1.21,1.5,-0.09,-0.01,0.03,3274,2019-03-25 16:52:19:552
0.04,1.79,11.16,-0.33,1.21,1.5,-0.09,-0.01,0.03,3278,2019-03-25 16:52:19:556
-1.6,1.77,5.52,-2.54,0.43,-3.42,-0.09,0.02,0.05,3283,2019-03-25 16:52:19:561
-1.6,1.77,5.52,-2.54,0.43,-3.42,-0.09,0.02,0.05,3288,2019-03-25 16:52:19:566
-1.6,1.77,5.52,-2.54,0.43,-3.42,-0.09,0.02,0.05,3293,2019-03-25 16:52:19:571
-0.27,2.74,16.63,-1.1,1.24,7.11,-0.32,-0.08,0.06,3298,2019-03-25 16:52:19:576
-0.27,2.74,16.63,-1.1,1.24,7.11,-0.32,-0.08,0.06,3303,2019-03-25 16:52:19:581
-0.27,2.74,16.63,-1.1,1.24,7.11,-0.32,-0.08,0.06,3308,2019-03-25 16:52:19:586
-0.27,2.74,16.63,-1.1,1.24,7.11,-0.32,-0.08,0.06,3313,2019-03-25 16:52:19:591
-3.27,1.39,6.88,-3.84,0.0,-2.34,-0.04,0.1,-0.05,3318,2019-03-25 16:52:19:596
-3.27,1.39,6.88,-3.84,0.0,-2.34,-0.04,0.1,-0.05,3323,2019-03-25 16:52:19:601
-3.27,1.39,6.88,-3.84,0.0,-2.34,-0.04,0.1,-0.05,3328,2019-03-25 16:52:19:606
-3.27,1.39,6.88,-3.84,0.0,-2.34,-0.04,0.1,-0.05,3333,2019-03-25 16:52:19:611
-0.64,1.09,12.54,-1.26,-0.36,3.23,-0.17,-0.05,-0.04,3338,2019-03-25 16:52:19:616
-0.64,1.09,12.54,-1.26,-0.36,3.23,-0.17,-0.05,-0.04,3343,2019-03-25 16:52:19:621
-0.64,1.09,12.54,-1.26,-0.36,3.23,-0.17,-0.05,-0.04,3348,2019-03-25 16:52:19:626
-0.64,1.09,12.54,-1.26,-0.36,3.23,-0.17,-0.05,-0.04,3353,2019-03-25 16:52:19:631
1.71,-1.6,11.65,1.13,-2.81,2.14,-0.14,0.05,0.0,3357,2019-03-25 16:52:19:635
1.71,-1.6,11.65,1.13,-2.81,2.14,-0.14,0.05,0.0,3363,2019-03-25 16:52:19:641
1.71,-1.6,11.65,1.13,-2.81,2.14,-0.14,0.05,0.0,3368,2019-03-25 16:52:19:646
1.71,-1.6,11.65,1.13,-2.81,2.14,-0.14,0.05,0.0,3373,2019-03-25 16:52:19:651
4.44,-1.65,12.34,3.62,-2.52,2.77,-0.24,0.02,-0.01,3378,2019-03-25 16:52:19:656
4.44,-1.65,12.34,3.62,-2.52,2.77,-0.24,0.02,-0.01,3383,2019-03-25 16:52:19:661
4.44,-1.65,12.34,3.62,-2.52,2.77,-0.24,0.02,-0.01,3387,2019-03-25 16:52:19:665
4.44,-1.65,12.34,3.62,-2.52,2.77,-0.24,0.02,-0.01,3393,2019-03-25 16:52:19:671
5.52,0.28,11.46,3.62,-2.52,2.77,-0.01,0.11,-0.19,3398,2019-03-25 16:52:19:676
5.52,0.28,11.46,4.37,-0.54,1.88,-0.01,0.11,-0.19,3403,2019-03-25 16:52:19:681
5.52,0.28,11.46,4.37,-0.54,1.88,-0.01,0.11,-0.19,3409,2019-03-25 16:52:19:687
5.52,0.28,11.46,4.37,-0.54,1.88,-0.01,0.11,-0.19,3413,2019-03-25 16:52:19:691
5.52,0.28,11.46,4.37,-0.54,1.88,-0.01,0.11,-0.19,3418,2019-03-25 16:52:19:696
-1.25,0.24,10.2,-2.13,-0.53,0.5,0.04,0.03,-0.26,3424,2019-03-25 16:52:19:702
-1.25,0.24,10.2,-2.13,-0.53,0.5,0.04,0.03,-0.26,3428,2019-03-25 16:52:19:706
-1.25,0.24,10.2,-2.13,-0.53,0.5,0.04,0.03,-0.26,3434,2019-03-25 16:52:19:712
-1.25,0.24,10.2,-2.13,-0.53,0.5,0.04,0.03,-0.26,3438,2019-03-25 16:52:19:716
-1.25,0.24,10.2,-2.13,-0.53,0.5,0.04,0.03,-0.26,3443,2019-03-25 16:52:19:721
-2.39,2.82,10.56,-2.98,2.07,0.8,-0.08,0.04,-0.24,3449,2019-03-25 16:52:19:727
-2.39,2.82,10.56,-2.98,2.07,0.8,-0.08,0.04,-0.24,3453,2019-03-25 16:52:19:731
-2.39,2.82,10.56,-2.98,2.07,0.8,-0.04,-0.06,-0.24,3458,2019-03-25 16:52:19:736
-2.39,2.82,10.56,-2.98,2.07,0.8,-0.04,-0.06,-0.24,3463,2019-03-25 16:52:19:741
-2.39,2.82,10.56,-2.98,2.07,0.8,-0.04,-0.06,-0.24,3470,2019-03-25 16:52:19:748
-2.39,2.82,10.56,-2.98,2.07,0.8,-0.04,-0.06,-0.24,3473,2019-03-25 16:52:19:751
-2.39,2.93,10.36,-2.68,1.93,-0.08,-0.06,-0.04,-0.2,3478,2019-03-25 16:52:19:756
-2.39,2.93,10.36,-2.68,1.93,-0.08,-0.06,-0.04,-0.2,3484,2019-03-25 16:52:19:762
-2.39,2.93,10.36,-2.68,1.93,-0.08,-0.06,-0.04,-0.2,3488,2019-03-25 16:52:19:766
-2.39,2.93,10.36,-2.68,1.93,-0.08,-0.06,-0.04,-0.2,3493,2019-03-25 16:52:19:771
-2.39,2.93,10.36,-2.68,1.93,-0.08,-0.06,-0.04,-0.2,3498,2019-03-25 16:52:19:776
-0.7,1.66,8.57,-1.04,0.74,-1.27,0.02,-0.05,-0.15,3503,2019-03-25 16:52:19:781
-0.7,1.66,8.57,-1.04,0.74,-1.27,0.02,-0.05,-0.15,3511,2019-03-25 16:52:19:789
-0.12,1.37,8.79,-0.58,0.35,-1.38,0.01,-0.02,-0.02,3514,2019-03-25 16:52:19:792
-0.12,1.37,8.79,-0.58,0.35,-1.38,0.01,-0.02,-0.02,3519,2019-03-25 16:52:19:797
-0.12,1.37,8.79,-0.58,0.35,-1.38,0.01,-0.02,-0.02,3524,2019-03-25 16:52:19:802
-0.12,1.37,8.79,-0.58,0.35,-1.38,0.01,-0.02,-0.02,3528,2019-03-25 16:52:19:806
-0.12,1.37,8.79,-0.58,0.35,-1.38,0.01,-0.02,-0.02,3534,2019-03-25 16:52:19:812
-0.12,1.37,8.79,-0.58,0.35,-1.38,0.01,-0.02,-0.02,3537,2019-03-25 16:52:19:815
-0.25,1.94,16.67,-0.78,0.86,5.99,0.0,0.01,0.12,3543,2019-03-25 16:52:19:821
-0.25,1.94,16.67,-0.78,0.86,5.99,0.0,0.01,0.12,3549,2019-03-25 16:52:19:827
-0.25,1.94,16.67,-0.78,0.86,5.99,0.0,0.01,0.12,3553,2019-03-25 16:52:19:831
-0.25,1.94,16.67,-0.78,0.86,5.99,0.0,0.01,0.12,3558,2019-03-25 16:52:19:836
1.54,0.24,2.37,1.04,-1.09,-8.24,0.06,0.08,0.23,3563,2019-03-25 16:52:19:841
1.54,0.24,2.37,1.04,-1.09,-8.24,0.06,0.08,0.23,3568,2019-03-25 16:52:19:846
1.54,0.24,2.37,1.04,-1.09,-8.24,0.06,0.08,0.23,3573,2019-03-25 16:52:19:851
1.54,0.24,2.37,1.04,-1.09,-8.24,0.06,0.08,0.23,3578,2019-03-25 16:52:19:856
1.54,0.24,2.37,1.04,-1.09,-8.24,0.06,0.08,0.23,3583,2019-03-25 16:52:19:861
-2.58,2.6,12.21,-2.58,0.99,1.97,0.17,0.0,0.26,3588,2019-03-25 16:52:19:866
-2.58,2.6,12.21,-2.58,0.99,1.97,0.17,0.0,0.26,3593,2019-03-25 16:52:19:871
-1.14,-0.54,10.13,-2.58,0.99,1.97,0.3,-0.09,0.21,3598,2019-03-25 16:52:19:876
-1.14,-0.54,10.13,-2.58,0.99,1.97,0.3,-0.09,0.21,3603,2019-03-25 16:52:19:881
-1.14,-0.54,10.13,-2.58,0.99,1.97,0.3,-0.09,0.21,3608,2019-03-25 16:52:19:886
-1.14,-0.54,10.13,-2.58,0.99,1.97,0.3,-0.09,0.21,3614,2019-03-25 16:52:19:892
0.22,2.45,11.11,0.69,0.63,0.77,-0.1,0.06,0.22,3619,2019-03-25 16:52:19:897
0.22,2.45,11.11,0.69,0.63,0.77,-0.1,0.06,0.22,3623,2019-03-25 16:52:19:901
0.22,2.45,11.11,0.69,0.63,0.77,-0.1,0.06,0.22,3628,2019-03-25 16:52:19:906
0.22,2.45,11.11,0.69,0.63,0.77,-0.1,0.06,0.22,3633,2019-03-25 16:52:19:911
0.22,2.45,11.11,0.69,0.63,0.77,-0.1,0.06,0.22,3638,2019-03-25 16:52:19:916
3.48,4.33,9.28,3.47,2.35,-1.31,0.0,-0.02,0.1,3643,2019-03-25 16:52:19:921
3.48,4.33,9.28,3.47,2.35,-1.31,0.0,-0.02,0.1,3648,2019-03-25 16:52:19:926
3.48,4.33,9.28,3.47,2.35,-1.31,0.0,-0.02,0.1,3653,2019-03-25 16:52:19:931
3.48,4.33,9.28,3.47,2.35,-1.31,0.0,-0.02,0.1,3658,2019-03-25 16:52:19:936
0.11,-3.16,1.57,0.18,-4.76,-8.67,0.18,-0.06,0.0,3662,2019-03-25 16:52:19:940
0.11,-3.16,1.57,0.18,-4.76,-8.67,0.18,-0.06,0.0,3668,2019-03-25 16:52:19:946
0.11,-3.16,1.57,0.18,-4.76,-8.67,0.18,-0.06,0.0,3673,2019-03-25 16:52:19:951
0.11,-3.16,1.57,0.18,-4.76,-8.67,0.18,-0.06,0.0,3678,2019-03-25 16:52:19:956
1.73,1.53,11.39,1.51,0.21,0.96,-0.11,0.0,0.13,3683,2019-03-25 16:52:19:961
1.73,1.53,11.39,1.51,0.21,0.96,-0.11,0.0,0.13,3688,2019-03-25 16:52:19:966
1.73,1.53,11.39,1.51,0.21,0.96,-0.11,0.0,0.13,3694,2019-03-25 16:52:19:972
1.73,1.53,11.39,1.51,0.21,0.96,-0.11,0.0,0.13,3697,2019-03-25 16:52:19:975
1.24,-1.07,4.93,0.92,-2.12,-5.42,0.15,0.03,0.02,3703,2019-03-25 16:52:19:981
1.24,-1.07,4.93,0.92,-2.12,-5.42,0.15,0.03,0.02,3709,2019-03-25 16:52:19:987
1.24,-1.07,4.93,0.92,-2.12,-5.42,0.15,0.03,0.02,3713,2019-03-25 16:52:19:991
1.24,-1.07,4.93,0.92,-2.12,-5.42,0.15,0.03,0.02,3718,2019-03-25 16:52:19:996
1.61,0.93,12.57,1.23,-0.01,2.14,0.06,-0.02,0.06,3723,2019-03-25 16:52:20:001
1.61,0.93,12.57,1.23,-0.01,2.14,0.06,-0.02,0.06,3728,2019-03-25 16:52:20:006
1.61,0.93,12.57,1.23,-0.01,2.14,0.06,-0.02,0.06,3733,2019-03-25 16:52:20:011
1.61,0.93,12.57,1.23,-0.01,2.14,0.06,-0.02,0.06,3738,2019-03-25 16:52:20:016
-0.63,-1.39,7.45,-1.01,-2.15,-2.2,0.07,0.02,0.07,3742,2019-03-25 16:52:20:020
-0.63,-1.39,7.45,-1.01,-2.15,-2.2,0.07,0.02,0.07,3748,2019-03-25 16:52:20:026
-0.63,-1.39,7.45,-1.01,-2.15,-2.2,0.07,0.02,0.07,3753,2019-03-25 16:52:20:031
-0.63,-1.39,7.45,-1.01,-2.15,-2.2,0.07,0.02,0.07,3758,2019-03-25 16:52:20:036
0.4,0.74,11.18,0.02,0.07,1.57,0.0,-0.04,0.04,3763,2019-03-25 16:52:20:041
0.4,0.74,11.18,0.02,0.07,1.57,0.0,-0.04,0.04,3768,2019-03-25 16:52:20:046
0.4,0.74,11.18,0.02,0.07,1.57,0.0,-0.04,0.04,3773,2019-03-25 16:52:20:051
0.4,0.74,11.18,0.02,0.07,1.57,0.0,-0.04,0.04,3778,2019-03-25 16:52:20:056
2.63,1.58,9.28,1.91,0.9,-0.76,0.07,0.05,0.0,3783,2019-03-25 16:52:20:061
2.63,1.58,9.28,1.91,0.9,-0.76,0.07,0.05,0.0,3788,2019-03-25 16:52:20:066
2.63,1.58,9.28,1.91,0.9,-0.76,0.07,0.05,0.0,3793,2019-03-25 16:52:20:071
2.63,1.58,9.28,1.91,0.9,-0.76,0.07,0.05,0.0,3798,2019-03-25 16:52:20:076
0.44,0.72,9.85,-0.37,0.07,0.19,0.2,0.02,-0.08,3804,2019-03-25 16:52:20:082
0.44,0.72,9.85,-0.37,0.07,0.19,0.2,0.02,-0.08,3808,2019-03-25 16:52:20:086
0.44,0.72,9.85,-0.37,0.07,0.19,0.2,0.02,-0.08,3813,2019-03-25 16:52:20:091
0.44,0.72,9.85,-0.37,0.07,0.19,0.2,0.02,-0.08,3818,2019-03-25 16:52:20:096
1.39,0.99,8.93,0.5,0.44,-0.78,-0.04,0.01,0.01,3823,2019-03-25 16:52:20:101
1.39,0.99,8.93,0.5,0.44,-0.78,-0.04,0.01,0.01,3828,2019-03-25 16:52:20:106
1.39,0.99,8.93,0.5,0.44,-0.78,-0.04,0.01,0.01,3833,2019-03-25 16:52:20:111
1.39,0.99,8.93,0.5,0.44,-0.78,-0.04,0.01,0.01,3838,2019-03-25 16:52:20:116
0.74,-0.15,9.62,0.09,-0.45,0.28,0.14,-0.01,-0.04,3843,2019-03-25 16:52:20:121
0.74,-0.15,9.62,0.09,-0.45,0.28,0.14,-0.01,-0.04,3848,2019-03-25 16:52:20:126
0.74,-0.15,9.62,0.09,-0.45,0.28,0.14,-0.01,-0.04,3853,2019-03-25 16:52:20:131
0.74,-0.15,9.62,0.09,-0.45,0.28,0.14,-0.01,-0.04,3859,2019-03-25 16:52:20:137
0.73,-0.56,12.03,-0.18,-0.99,2.35,-0.01,0.0,-0.02,3863,2019-03-25 16:52:20:141
0.73,-0.56,12.03,-0.18,-0.99,2.35,-0.01,0.0,-0.02,3868,2019-03-25 16:52:20:146
0.73,-0.56,12.03,-0.18,-0.99,2.35,-0.01,0.0,-0.02,3873,2019-03-25 16:52:20:151
0.73,-0.56,12.03,-0.18,-0.99,2.35,-0.01,0.0,-0.02,3878,2019-03-25 16:52:20:156
-0.61,-0.21,9.16,-1.31,-0.5,-0.13,0.04,0.0,-0.08,3883,2019-03-25 16:52:20:161
-0.61,-0.21,9.16,-1.31,-0.5,-0.13,0.04,0.0,-0.08,3888,2019-03-25 16:52:20:166
-0.61,-0.21,9.16,-1.31,-0.5,-0.13,0.04,0.0,-0.08,3893,2019-03-25 16:52:20:171
-0.61,-0.21,9.16,-1.31,-0.5,-0.13,0.04,0.0,-0.08,3898,2019-03-25 16:52:20:176
-0.01,0.06,6.56,-0.66,-0.31,-2.73,0.0,-0.06,-0.07,3903,2019-03-25 16:52:20:181
-0.01,0.06,6.56,-0.66,-0.31,-2.73,0.0,-0.06,-0.07,3908,2019-03-25 16:52:20:186
-0.01,0.06,6.56,-0.66,-0.31,-2.73,0.0,-0.06,-0.07,3913,2019-03-25 16:52:20:191
-0.01,0.06,6.56,-0.66,-0.31,-2.73,0.0,-0.06,-0.07,3920,2019-03-25 16:52:20:198
-0.36,-0.85,11.9,-1.09,-1.15,3.0,-0.07,-0.08,-0.11,3923,2019-03-25 16:52:20:201
-0.36,-0.85,11.9,-1.09,-1.15,3.0,-0.07,-0.08,-0.11,3928,2019-03-25 16:52:20:206
-0.36,-0.85,11.9,-1.09,-1.15,3.0,-0.07,-0.08,-0.11,3933,2019-03-25 16:52:20:211
-0.36,-0.85,11.9,-1.09,-1.15,3.0,-0.07,-0.08,-0.11,3937,2019-03-25 16:52:20:215
2.75,0.86,12.04,1.87,0.44,2.48,-0.23,-0.06,-0.12,3944,2019-03-25 16:52:20:222
2.75,0.86,12.04,1.87,0.44,2.48,-0.23,-0.06,-0.12,3949,2019-03-25 16:52:20:227
2.75,0.86,12.04,1.87,0.44,2.48,-0.23,-0.06,-0.12,3953,2019-03-25 16:52:20:231
2.75,0.86,12.04,1.87,0.44,2.48,-0.23,-0.06,-0.12,3958,2019-03-25 16:52:20:236
2.75,0.86,12.04,1.87,0.44,2.48,-0.23,-0.06,-0.12,3963,2019-03-25 16:52:20:241
0.0,-1.08,10.26,-0.91,-1.25,0.72,0.08,0.01,-0.2,3968,2019-03-25 16:52:20:246
0.0,-1.08,10.26,-0.91,-1.25,0.72,0.08,0.01,-0.2,3973,2019-03-25 16:52:20:251
0.0,-1.08,10.26,-0.91,-1.25,0.72,0.08,0.01,-0.2,3978,2019-03-25 16:52:20:256
-0.62,-2.44,16.12,-1.38,-2.35,6.55,-0.09,-0.06,-0.18,3983,2019-03-25 16:52:20:261
-0.62,-2.44,16.12,-1.38,-2.35,6.55,-0.09,-0.06,-0.18,3988,2019-03-25 16:52:20:266
-0.62,-2.44,16.12,-1.38,-2.35,6.55,-0.09,-0.06,-0.18,3993,2019-03-25 16:52:20:271
-0.62,-2.44,16.12,-1.38,-2.35,6.55,-0.09,-0.06,-0.18,3998,2019-03-25 16:52:20:276
-0.33,1.6,13.91,-1.1,1.58,3.79,0.03,0.02,-0.2,4003,2019-03-25 16:52:20:281
-0.33,1.6,13.91,-1.1,1.58,3.79,0.03,0.02,-0.2,4008,2019-03-25 16:52:20:286
-0.33,1.6,13.91,-1.1,1.58,3.79,0.03,0.02,-0.2,4013,2019-03-25 16:52:20:291
-0.27,-1.13,8.52,-1.1,1.58,3.79,0.18,0.05,-0.1,4018,2019-03-25 16:52:20:296
-0.27,-1.13,8.52,-0.84,-0.83,-1.22,0.18,0.05,-0.1,4023,2019-03-25 16:52:20:301
-0.27,-1.13,8.52,-0.84,-0.83,-1.22,0.18,0.05,-0.1,4028,2019-03-25 16:52:20:306
-0.27,-1.13,8.52,-0.84,-0.83,-1.22,0.18,0.05,-0.1,4033,2019-03-25 16:52:20:311
-0.96,-1.64,4.62,-0.84,-0.83,-1.22,-0.09,0.0,0.12,4038,2019-03-25 16:52:20:316
-0.96,-1.64,4.62,-1.37,-1.25,-5.09,-0.09,0.0,0.12,4043,2019-03-25 16:52:20:321
-0.96,-1.64,4.62,-1.37,-1.25,-5.09,-0.09,0.0,0.12,4049,2019-03-25 16:52:20:327
-0.96,-1.64,4.62,-1.37,-1.25,-5.09,-0.09,0.0,0.12,4053,2019-03-25 16:52:20:331
-0.96,-1.64,4.62,-1.37,-1.25,-5.09,-0.09,0.0,0.12,4058,2019-03-25 16:52:20:336
-0.96,-1.64,4.62,-1.37,-1.25,-5.09,-0.09,0.0,0.12,4063,2019-03-25 16:52:20:341
-1.28,0.17,12.32,-1.36,0.59,2.54,0.05,0.0,0.24,4068,2019-03-25 16:52:20:346
-1.28,0.17,12.32,-1.36,0.59,2.54,0.05,0.0,0.24,4073,2019-03-25 16:52:20:351
-1.28,0.17,12.32,-1.36,0.59,2.54,0.05,0.0,0.24,4078,2019-03-25 16:52:20:356
-1.28,0.17,12.32,-1.36,0.59,2.54,0.05,0.0,0.24,4083,2019-03-25 16:52:20:361
-0.34,1.41,10.92,-0.45,1.72,0.81,-0.03,0.0,0.36,4089,2019-03-25 16:52:20:367
-0.34,1.41,10.92,-0.45,1.72,0.81,-0.03,0.0,0.36,4093,2019-03-25 16:52:20:371
-0.34,1.41,10.92,-0.45,1.72,0.81,-0.03,0.0,0.36,4099,2019-03-25 16:52:20:377
-0.34,1.41,10.92,-0.45,1.72,0.81,-0.03,0.0,0.36,4103,2019-03-25 16:52:20:381
-2.0,0.01,9.09,0.21,0.23,-2.76,0.1,0.0,0.45,4108,2019-03-25 16:52:20:386
-2.0,0.01,9.09,0.21,0.23,-2.76,0.1,0.0,0.45,4114,2019-03-25 16:52:20:392
-2.0,0.01,9.09,0.21,0.23,-2.76,0.1,0.0,0.45,4118,2019-03-25 16:52:20:396
-2.0,0.01,9.09,0.21,0.23,-2.76,0.1,0.0,0.45,4124,2019-03-25 16:52:20:402
1.65,-0.08,10.3,1.7,0.2,-0.31,0.09,0.0,0.47,4129,2019-03-25 16:52:20:407
1.65,-0.08,10.3,1.7,0.2,-0.31,0.09,0.0,0.47,4133,2019-03-25 16:52:20:411
1.65,-0.08,10.3,1.7,0.2,-0.31,0.09,0.0,0.47,4138,2019-03-25 16:52:20:416
1.65,-0.08,10.3,1.7,0.2,-0.31,0.09,0.0,0.47,4143,2019-03-25 16:52:20:421
1.82,0.45,7.71,1.85,0.81,-2.4,0.05,0.05,0.5,4148,2019-03-25 16:52:20:426
1.82,0.45,7.71,1.85,0.81,-2.4,0.05,0.05,0.5,4153,2019-03-25 16:52:20:431
1.82,0.45,7.71,1.85,0.81,-2.4,0.0,0.03,0.47,4159,2019-03-25 16:52:20:437
1.82,0.45,7.71,1.85,0.81,-2.4,0.0,0.03,0.47,4162,2019-03-25 16:52:20:440
1.82,0.45,7.71,1.85,0.81,-2.4,0.0,0.03,0.47,4169,2019-03-25 16:52:20:447
1.82,0.45,7.71,1.85,0.81,-2.4,0.0,0.03,0.47,4173,2019-03-25 16:52:20:451
3.03,2.85,8.58,2.8,2.52,-1.7,0.04,0.11,0.37,4178,2019-03-25 16:52:20:456
3.03,2.85,8.58,2.8,2.52,-1.7,0.04,0.11,0.37,4183,2019-03-25 16:52:20:461
3.03,2.85,8.58,2.8,2.52,-1.7,0.04,0.11,0.37,4188,2019-03-25 16:52:20:466
3.03,2.85,8.58,2.8,2.52,-1.7,0.04,0.11,0.37,4193,2019-03-25 16:52:20:471
4.37,2.37,5.66,3.82,1.88,-3.92,0.24,0.06,0.15,4198,2019-03-25 16:52:20:476
4.37,2.37,5.66,3.82,1.88,-3.92,0.24,0.06,0.15,4204,2019-03-25 16:52:20:482
4.37,2.37,5.66,3.82,1.88,-3.92,0.24,0.06,0.15,4209,2019-03-25 16:52:20:487
4.37,2.37,5.66,3.82,1.88,-3.92,0.24,0.06,0.15,4213,2019-03-25 16:52:20:491
4.37,2.37,5.66,3.82,1.88,-3.92,0.24,0.06,0.15,4218,2019-03-25 16:52:20:496
2.31,1.88,11.37,1.48,0.96,1.36,0.08,0.02,-0.11,4223,2019-03-25 16:52:20:501
2.31,1.88,11.37,1.48,0.96,1.36,0.08,0.02,-0.11,4228,2019-03-25 16:52:20:506
2.31,1.88,11.37,1.48,0.96,1.36,0.08,0.02,-0.11,4233,2019-03-25 16:52:20:511
1.99,1.29,9.78,0.76,0.23,-0.34,-0.11,-0.05,-0.31,4238,2019-03-25 16:52:20:516
1.99,1.29,9.78,0.76,0.23,-0.34,-0.11,-0.05,-0.31,4243,2019-03-25 16:52:20:521
1.99,1.29,9.78,0.76,0.23,-0.34,-0.11,-0.05,-0.31,4248,2019-03-25 16:52:20:526
1.99,-0.16,5.91,0.76,0.23,-0.34,-0.1,0.0,-0.62,4254,2019-03-25 16:52:20:532
4.34,-0.16,5.91,2.44,-1.33,-4.15,-0.1,0.0,-0.62,4257,2019-03-25 16:52:20:535
4.34,-0.16,5.91,2.44,-1.33,-4.15,-0.1,0.0,-0.62,4263,2019-03-25 16:52:20:541
4.34,-0.16,5.91,2.44,-1.33,-4.15,-0.1,0.0,-0.62,4268,2019-03-25 16:52:20:546
4.34,-0.16,5.91,2.44,-1.33,-4.15,-0.1,0.0,-0.62,4273,2019-03-25 16:52:20:551
2.29,1.92,8.79,-0.03,0.73,-1.17,-0.27,-0.04,-0.62,4278,2019-03-25 16:52:20:556
2.29,1.92,8.79,-0.03,0.73,-1.17,-0.27,-0.04,-0.62,4282,2019-03-25 16:52:20:560
2.29,1.92,8.79,-0.03,0.73,-1.17,-0.27,-0.04,-0.62,4288,2019-03-25 16:52:20:566
2.29,1.92,8.79,-0.03,0.73,-1.17,-0.27,-0.04,-0.62,4292,2019-03-25 16:52:20:570
2.13,0.81,6.77,-0.45,-0.46,-3.26,-0.06,-0.03,-0.65,4298,2019-03-25 16:52:20:576
2.13,0.81,6.77,-0.45,-0.46,-3.26,-0.06,-0.03,-0.65,4303,2019-03-25 16:52:20:581
2.13,0.81,6.77,-0.45,-0.46,-3.26,-0.06,-0.03,-0.65,4309,2019-03-25 16:52:20:587
2.13,0.81,6.77,-0.45,-0.46,-3.26,-0.06,-0.03,-0.65,4313,2019-03-25 16:52:20:591
-1.63,1.32,13.84,-3.96,-0.04,3.64,-0.1,-0.08,-0.62,4318,2019-03-25 16:52:20:596
-1.63,1.32,13.84,-3.96,-0.04,3.64,-0.1,-0.08,-0.62,4323,2019-03-25 16:52:20:601
-1.63,1.32,13.84,-3.96,-0.04,3.64,-0.1,-0.08,-0.62,4328,2019-03-25 16:52:20:606
-1.63,1.32,13.84,-3.96,-0.04,3.64,-0.1,-0.08,-0.62,4333,2019-03-25 16:52:20:611
-1.72,-1.04,9.25,-3.7,-2.31,-0.79,-0.13,-0.1,-0.61,4338,2019-03-25 16:52:20:616
-1.72,-1.04,9.25,-3.7,-2.31,-0.79,-0.13,-0.1,-0.61,4343,2019-03-25 16:52:20:621
-1.72,-1.04,9.25,-3.7,-2.31,-0.79,-0.13,-0.1,-0.61,4348,2019-03-25 16:52:20:626
-1.72,-1.04,9.25,-3.7,-2.31,-0.79,-0.13,-0.1,-0.61,4353,2019-03-25 16:52:20:631
-1.72,-1.04,9.25,-3.7,-2.31,-0.79,-0.13,-0.1,-0.61,4358,2019-03-25 16:52:20:636
-1.72,-1.04,9.25,-3.7,-2.31,-0.79,-0.13,-0.1,-0.61,4365,2019-03-25 16:52:20:643
-1.72,-1.04,9.25,-3.7,-2.31,-0.79,-0.13,-0.1,-0.61,4368,2019-03-25 16:52:20:646
-0.47,-2.69,13.63,-2.14,-3.61,3.53,-0.15,-0.06,-0.45,4374,2019-03-25 16:52:20:652
-0.47,-2.69,13.63,-2.14,-3.61,3.53,-0.15,-0.06,-0.45,4378,2019-03-25 16:52:20:656
-0.47,-2.69,13.63,-2.14,-3.61,3.53,-0.15,-0.06,-0.45,4383,2019-03-25 16:52:20:661
-0.47,-2.69,13.63,-2.14,-3.61,3.53,-0.15,-0.06,-0.45,4388,2019-03-25 16:52:20:666
-0.89,-2.86,7.01,-2.16,-3.19,-3.01,-0.13,-0.05,-0.28,4393,2019-03-25 16:52:20:671
-0.89,-2.86,7.01,-2.16,-3.19,-3.01,-0.13,-0.05,-0.28,4398,2019-03-25 16:52:20:676
-0.89,-2.86,7.01,-2.16,-3.19,-3.01,-0.13,-0.05,-0.28,4403,2019-03-25 16:52:20:681
-0.89,-2.86,7.01,-2.16,-3.19,-3.01,-0.13,-0.05,-0.28,4408,2019-03-25 16:52:20:686
-1.92,-2.11,15.02,-2.66,-1.91,4.67,-0.14,-0.03,-0.07,4414,2019-03-25 16:52:20:692
-1.92,-2.11,15.02,-2.66,-1.91,4.67,-0.14,-0.03,-0.07,4418,2019-03-25 16:52:20:696
-1.92,-2.11,15.02,-2.66,-1.91,4.67,-0.14,-0.03,-0.07,4423,2019-03-25 16:52:20:701
-1.92,-2.11,15.02,-2.66,-1.91,4.67,-0.14,-0.03,-0.07,4428,2019-03-25 16:52:20:706
-1.92,-2.11,15.02,-2.66,-1.91,4.67,-0.14,-0.03,-0.07,4433,2019-03-25 16:52:20:711
-0.37,-2.16,7.87,-0.4,-1.18,-2.34,-0.1,0.07,0.33,4438,2019-03-25 16:52:20:716
-0.37,-2.16,7.87,-0.4,-1.18,-2.34,-0.1,0.07,0.33,4443,2019-03-25 16:52:20:721
-0.37,-2.16,7.87,-0.4,-1.18,-2.34,-0.1,0.07,0.33,4448,2019-03-25 16:52:20:726
-0.37,-2.16,7.87,-0.4,-1.18,-2.34,-0.1,0.07,0.33,4453,2019-03-25 16:52:20:731
-0.37,-2.16,7.87,-0.4,-1.18,-2.34,-0.1,0.07,0.33,4458,2019-03-25 16:52:20:736
-0.37,-2.16,7.87,-0.4,-1.18,-2.34,-0.1,0.07,0.33,4463,2019-03-25 16:52:20:741
-0.37,-2.16,7.87,-0.4,-1.18,-2.34,-0.1,0.07,0.33,4469,2019-03-25 16:52:20:747
-1.65,0.68,14.89,-1.19,1.69,4.63,0.07,0.0,0.42,4473,2019-03-25 16:52:20:751
-1.65,0.68,14.89,-1.19,1.69,4.63,0.07,0.0,0.42,4477,2019-03-25 16:52:20:755
-1.65,0.68,14.89,-1.19,1.69,4.63,0.07,0.0,0.42,4483,2019-03-25 16:52:20:761
-1.65,0.68,14.89,-1.19,1.69,4.63,0.07,0.0,0.42,4488,2019-03-25 16:52:20:766
-1.65,0.68,14.89,-1.19,1.69,4.63,0.07,0.0,0.42,4493,2019-03-25 16:52:20:771
1.66,-0.86,10.05,2.76,0.32,0.11,0.21,0.08,0.43,4498,2019-03-25 16:52:20:776
1.66,-0.86,10.05,2.76,0.32,0.11,0.21,0.08,0.43,4507,2019-03-25 16:52:20:785
1.66,-0.86,10.05,2.76,0.32,0.11,0.21,0.08,0.43,4509,2019-03-25 16:52:20:787
1.66,-0.86,10.05,2.76,0.32,0.11,0.21,0.08,0.43,4513,2019-03-25 16:52:20:791
-1.98,3.13,12.31,-0.92,4.2,2.51,0.02,-0.04,0.43,4518,2019-03-25 16:52:20:796
-1.98,3.13,12.31,-0.92,4.2,2.51,0.02,-0.04,0.43,4523,2019-03-25 16:52:20:801
-1.98,3.13,12.31,-0.92,4.2,2.51,0.02,-0.04,0.43,4528,2019-03-25 16:52:20:806
-1.98,3.13,12.31,-0.92,4.2,2.51,0.02,-0.04,0.43,4533,2019-03-25 16:52:20:811
2.37,0.1,4.73,3.04,1.09,-4.89,0.11,0.04,0.33,4538,2019-03-25 16:52:20:816
2.37,0.1,4.73,3.04,1.09,-4.89,0.11,0.04,0.33,4544,2019-03-25 16:52:20:822
2.37,0.1,4.73,3.04,1.09,-4.89,0.11,0.04,0.33,4552,2019-03-25 16:52:20:830
2.37,0.1,4.73,3.04,1.09,-4.89,0.11,0.04,0.33,4553,2019-03-25 16:52:20:831
-0.61,1.9,12.03,-0.07,2.57,2.42,-0.04,-0.04,0.3,4558,2019-03-25 16:52:20:836
-0.61,1.9,12.03,-0.07,2.57,2.42,-0.04,-0.04,0.3,4563,2019-03-25 16:52:20:841
-0.61,1.9,12.03,-0.07,2.57,2.42,-0.04,-0.04,0.3,4568,2019-03-25 16:52:20:846
-0.61,1.9,12.03,-0.07,2.57,2.42,-0.04,-0.04,0.3,4573,2019-03-25 16:52:20:851
1.2,0.85,13.69,1.5,1.22,3.84,0.16,0.08,0.23,4578,2019-03-25 16:52:20:856
1.2,0.85,13.69,1.5,1.22,3.84,0.16,0.08,0.23,4583,2019-03-25 16:52:20:861
1.2,0.85,13.69,1.5,1.22,3.84,0.16,0.08,0.23,4587,2019-03-25 16:52:20:865
1.2,0.85,13.69,1.5,1.22,3.84,0.16,0.08,0.23,4593,2019-03-25 16:52:20:871
1.82,0.27,7.64,1.69,0.21,-1.98,0.16,0.04,0.21,4600,2019-03-25 16:52:20:878
1.82,0.27,7.64,1.69,0.21,-1.98,0.16,0.04,0.21,4603,2019-03-25 16:52:20:881
1.82,0.27,7.64,1.69,0.21,-1.98,0.16,0.04,0.21,4608,2019-03-25 16:52:20:886
1.82,0.27,7.64,1.69,0.21,-1.98,0.16,0.04,0.21,4613,2019-03-25 16:52:20:891
1.82,0.27,7.64,1.69,0.21,-1.98,0.16,0.04,0.21,4618,2019-03-25 16:52:20:896
1.82,0.27,7.64,1.69,0.21,-1.98,0.16,0.04,0.21,4624,2019-03-25 16:52:20:902
2.26,0.49,11.32,1.87,0.08,1.82,0.11,0.0,0.14,4629,2019-03-25 16:52:20:907
2.26,0.49,11.32,1.87,0.08,1.82,0.11,0.0,0.14,4633,2019-03-25 16:52:20:911
2.26,0.49,11.32,1.87,0.08,1.82,0.11,0.0,0.14,4638,2019-03-25 16:52:20:916
2.26,0.49,11.32,1.87,0.08,1.82,0.11,0.0,0.14,4643,2019-03-25 16:52:20:921
2.26,0.49,11.32,1.87,0.08,1.82,0.11,0.0,0.14,4649,2019-03-25 16:52:20:927
2.26,0.49,11.32,1.87,0.08,1.82,0.11,0.0,0.14,4653,2019-03-25 16:52:20:931
2.37,0.19,3.97,1.83,-0.52,-5.23,0.06,0.01,0.07,4658,2019-03-25 16:52:20:936
2.37,0.19,3.97,1.83,-0.52,-5.23,0.06,0.01,0.07,4663,2019-03-25 16:52:20:941
2.37,0.19,3.97,1.83,-0.52,-5.23,-0.05,-0.02,-0.03,4672,2019-03-25 16:52:20:950
2.37,0.19,3.97,1.83,-0.52,-5.23,-0.05,-0.02,-0.03,4673,2019-03-25 16:52:20:951
1.97,0.75,11.45,3.11,0.38,5.3,0.22,-0.02,-0.25,4678,2019-03-25 16:52:20:956
1.97,0.75,11.45,3.11,0.38,5.3,0.22,-0.02,-0.25,4683,2019-03-25 16:52:20:961
1.97,0.75,11.45,3.11,0.38,5.3,0.22,-0.02,-0.25,4688,2019-03-25 16:52:20:966
1.97,0.75,11.45,3.11,0.38,5.3,0.22,-0.02,-0.25,4693,2019-03-25 16:52:20:971
1.39,-0.2,6.8,0.11,-1.08,-2.83,0.17,0.02,-0.26,4698,2019-03-25 16:52:20:976
1.39,-0.2,6.8,0.11,-1.08,-2.83,0.17,0.02,-0.26,4703,2019-03-25 16:52:20:981
1.39,-0.2,6.8,0.11,-1.08,-2.83,0.17,0.02,-0.26,4707,2019-03-25 16:52:20:985
1.39,-0.2,6.8,0.11,-1.08,-2.83,0.17,0.02,-0.26,4713,2019-03-25 16:52:20:991
0.06,0.29,4.05,-1.42,-0.29,-5.08,-0.02,0.02,-0.22,4718,2019-03-25 16:52:20:996
0.06,0.29,4.05,-1.42,-0.29,-5.08,-0.02,0.02,-0.22,4722,2019-03-25 16:52:21:000
0.06,0.29,4.05,-1.42,-0.29,-5.08,-0.02,0.02,-0.22,4729,2019-03-25 16:52:21:007
0.06,0.29,4.05,-1.42,-0.29,-5.08,-0.02,0.02,-0.22,4733,2019-03-25 16:52:21:011
0.92,0.51,11.05,-0.41,0.0,1.35,-0.07,-0.02,-0.28,4738,2019-03-25 16:52:21:016
0.92,0.51,11.05,-0.41,0.0,1.35,-0.07,-0.02,-0.28,4743,2019-03-25 16:52:21:021
0.92,0.51,11.05,-0.41,0.0,1.35,-0.07,-0.02,-0.28,4749,2019-03-25 16:52:21:027
0.92,0.51,11.05,-0.41,0.0,1.35,-0.07,-0.02,-0.28,4753,2019-03-25 16:52:21:031
0.92,0.51,11.05,-0.41,0.0,1.35,-0.07,-0.02,-0.28,4758,2019-03-25 16:52:21:036
0.92,0.51,11.05,-0.41,0.0,1.35,-0.07,-0.02,-0.28,4763,2019-03-25 16:52:21:041
1.9,-2.35,4.75,0.42,-2.62,-4.4,0.09,-0.01,-0.27,4768,2019-03-25 16:52:21:046
1.9,-2.35,4.75,0.42,-2.62,-4.4,0.09,-0.01,-0.27,4773,2019-03-25 16:52:21:051
-1.29,-2.86,12.9,0.42,-2.62,-4.4,0.08,-0.08,-0.2,4778,2019-03-25 16:52:21:056
-1.29,-2.86,12.9,-2.13,-2.61,3.36,0.08,-0.08,-0.2,4783,2019-03-25 16:52:21:061
-1.29,-2.86,12.9,-2.13,-2.61,3.36,0.08,-0.08,-0.2,4788,2019-03-25 16:52:21:066
-1.29,-2.86,12.9,-2.13,-2.61,3.36,0.08,-0.08,-0.2,4792,2019-03-25 16:52:21:070
-3.41,1.03,11.0,-3.99,1.25,1.3,0.01,-0.01,0.08,4798,2019-03-25 16:52:21:076
-3.41,1.03,11.0,-3.99,1.25,1.3,0.01,-0.01,0.08,4803,2019-03-25 16:52:21:081
-3.41,1.03,11.0,-3.99,1.25,1.3,0.01,-0.01,0.08,4808,2019-03-25 16:52:21:086
-3.41,1.03,11.0,-3.99,1.25,1.3,0.01,-0.01,0.08,4813,2019-03-25 16:52:21:091
0.5,3.04,11.07,-0.16,3.04,0.97,-0.12,-0.01,0.05,4819,2019-03-25 16:52:21:097
0.5,3.04,11.07,-0.16,3.04,0.97,-0.12,-0.01,0.05,4824,2019-03-25 16:52:21:102
0.5,3.04,11.07,-0.16,3.04,0.97,-0.12,-0.01,0.05,4828,2019-03-25 16:52:21:106
0.5,3.04,11.07,-0.16,3.04,0.97,-0.12,-0.01,0.05,4833,2019-03-25 16:52:21:111
0.5,3.04,11.07,-0.16,3.04,0.97,-0.12,-0.01,0.05,4838,2019-03-25 16:52:21:116
0.5,3.04,11.07,-0.16,3.04,0.97,-0.12,-0.01,0.05,4843,2019-03-25 16:52:21:121
-1.68,-0.71,7.34,-2.2,-0.58,-2.89,0.01,0.0,0.0,4848,2019-03-25 16:52:21:126
-1.68,-0.71,7.34,-2.2,-0.58,-2.89,0.01,0.0,0.0,4853,2019-03-25 16:52:21:131
-1.68,-0.71,7.34,-2.2,-0.58,-2.89,0.01,0.0,0.0,4858,2019-03-25 16:52:21:136
-1.68,-0.71,7.34,-2.2,-0.58,-2.89,0.01,0.0,0.0,4863,2019-03-25 16:52:21:141
1.18,1.52,11.48,0.66,1.53,1.26,0.0,-0.02,0.04,4868,2019-03-25 16:52:21:146
1.18,1.52,11.48,0.66,1.53,1.26,0.0,-0.02,0.04,4873,2019-03-25 16:52:21:151
1.18,1.52,11.48,0.66,1.53,1.26,0.0,-0.02,0.04,4878,2019-03-25 16:52:21:156
1.18,1.52,11.48,0.66,1.53,1.26,0.0,-0.02,0.04,4883,2019-03-25 16:52:21:161
-0.4,1.95,9.04,-0.67,1.89,-1.0,-0.01,-0.01,0.04,4888,2019-03-25 16:52:21:166
-0.4,1.95,9.04,-0.67,1.89,-1.0,-0.01,-0.01,0.04,4893,2019-03-25 16:52:21:171
-0.4,1.95,9.04,-0.67,1.89,-1.0,-0.01,-0.01,0.04,4898,2019-03-25 16:52:21:176
-0.22,2.42,15.11,1.22,2.21,-0.97,-0.05,-0.02,0.04,4903,2019-03-25 16:52:21:181
-0.22,2.42,15.11,1.22,2.21,-0.97,-0.05,-0.02,0.04,4908,2019-03-25 16:52:21:186
-0.22,2.42,15.11,1.22,2.21,-0.97,-0.05,-0.02,0.04,4914,2019-03-25 16:52:21:192
0.61,2.85,14.45,0.48,2.25,3.6,-0.02,-0.01,0.0,4918,2019-03-25 16:52:21:196
0.61,2.85,14.45,0.48,2.25,3.6,-0.02,-0.01,0.0,4924,2019-03-25 16:52:21:202
0.61,2.85,14.45,0.48,2.25,3.6,-0.02,-0.01,0.0,4928,2019-03-25 16:52:21:206
0.61,2.85,14.45,0.48,2.25,3.6,-0.02,-0.01,0.0,4933,2019-03-25 16:52:21:211
1.91,-0.29,1.9,1.7,-0.99,-8.05,0.07,0.07,-0.02,4938,2019-03-25 16:52:21:216
1.91,-0.29,1.9,1.7,-0.99,-8.05,0.07,0.07,-0.02,4943,2019-03-25 16:52:21:221
1.91,-0.29,1.9,1.7,-0.99,-8.05,0.07,0.07,-0.02,4948,2019-03-25 16:52:21:226
1.91,-0.29,1.9,1.7,-0.99,-8.05,0.07,0.07,-0.02,4953,2019-03-25 16:52:21:231
-0.71,1.89,14.62,-0.82,1.0,4.01,-0.04,-0.06,-0.01,4958,2019-03-25 16:52:21:236
-0.71,1.89,14.62,-0.82,1.0,4.01,-0.04,-0.06,-0.01,4963,2019-03-25 16:52:21:241
-0.71,1.89,14.62,-0.82,1.0,4.01,-0.04,-0.06,-0.01,4968,2019-03-25 16:52:21:246
-0.71,1.89,14.62,-0.82,1.0,4.01,-0.04,-0.06,-0.01,4973,2019-03-25 16:52:21:251
-0.71,1.89,14.62,-0.82,1.0,4.01,-0.04,-0.06,-0.01,4978,2019-03-25 16:52:21:256
2.74,0.44,7.08,2.13,-0.81,-3.13,-0.05,0.09,0.0,4983,2019-03-25 16:52:21:261
2.74,0.44,7.08,2.13,-0.81,-3.13,-0.05,0.09,0.0,4988,2019-03-25 16:52:21:266
2.74,0.44,7.08,2.13,-0.81,-3.13,-0.05,0.09,0.0,4993,2019-03-25 16:52:21:271
2.74,0.44,7.08,2.13,-0.81,-3.13,-0.05,0.09,0.0,5000,2019-03-25 16:52:21:278
2.74,0.44,7.08,2.13,-0.81,-3.13,-0.05,0.09,0.0,5003,2019-03-25 16:52:21:281
1.22,1.65,10.96,0.33,0.16,0.86,-0.16,0.02,0.0,5008,2019-03-25 16:52:21:286
1.22,1.65,10.96,0.33,0.16,0.86,-0.16,0.02,0.0,5013,2019-03-25 16:52:21:291
1.22,1.65,10.96,0.33,0.16,0.86,-0.16,0.02,0.0,5018,2019-03-25 16:52:21:296
1.22,1.65,10.96,0.33,0.16,0.86,-0.16,0.02,0.0,5024,2019-03-25 16:52:21:302
0.71,-0.5,6.69,0.03,-1.71,-2.85,-0.06,0.07,-0.08,5028,2019-03-25 16:52:21:306
0.71,-0.5,6.69,0.03,-1.71,-2.85,-0.06,0.07,-0.08,5033,2019-03-25 16:52:21:311
0.71,-0.5,6.69,0.03,-1.71,-2.85,-0.06,0.07,-0.08,5039,2019-03-25 16:52:21:317
0.71,-0.5,6.69,0.03,-1.71,-2.85,-0.06,0.07,-0.08,5043,2019-03-25 16:52:21:321
-1.79,-0.58,11.97,-2.33,-1.74,1.96,-0.16,-0.05,-0.08,5050,2019-03-25 16:52:21:328
-1.79,-0.58,11.97,-2.33,-1.74,1.96,-0.16,-0.05,-0.08,5053,2019-03-25 16:52:21:331
-1.79,-0.58,11.97,-2.33,-1.74,1.96,-0.16,-0.05,-0.08,5059,2019-03-25 16:52:21:337
0.23,-2.07,7.65,-0.06,-2.92,-1.87,-0.15,0.01,-0.15,5064,2019-03-25 16:52:21:342
0.23,-2.07,7.65,-0.06,-2.92,-1.87,-0.15,0.01,-0.15,5068,2019-03-25 16:52:21:346
0.23,-2.07,7.65,-0.06,-2.92,-1.87,-0.15,0.01,-0.15,5073,2019-03-25 16:52:21:351
0.23,-2.07,7.65,-0.06,-2.92,-1.87,-0.15,0.01,-0.15,5078,2019-03-25 16:52:21:356
3.06,-0.59,13.83,2.45,-1.22,3.9,-0.09,0.0,-0.2,5084,2019-03-25 16:52:21:362
3.06,-0.59,13.83,2.45,-1.22,3.9,-0.09,0.0,-0.2,5088,2019-03-25 16:52:21:366
3.06,-0.59,13.83,2.45,-1.22,3.9,-0.09,0.0,-0.2,5096,2019-03-25 16:52:21:374
3.06,-0.59,13.83,2.45,-1.22,3.9,-0.09,0.0,-0.2,5100,2019-03-25 16:52:21:378
0.85,0.23,9.58,0.2,-0.12,-0.35,-0.05,0.04,-0.12,5103,2019-03-25 16:52:21:381
0.85,0.23,9.58,0.2,-0.12,-0.35,-0.05,0.04,-0.12,5109,2019-03-25 16:52:21:387
0.85,0.23,9.58,0.2,-0.12,-0.35,-0.05,0.04,-0.12,5113,2019-03-25 16:52:21:391
0.85,0.23,9.58,0.2,-0.12,-0.35,-0.05,0.04,-0.12,5118,2019-03-25 16:52:21:396
-0.15,1.15,9.08,-0.76,1.02,-0.38,0.1,0.03,-0.06,5123,2019-03-25 16:52:21:401
-0.15,1.15,9.08,-0.76,1.02,-0.38,0.1,0.03,-0.06,5128,2019-03-25 16:52:21:406
-0.15,1.15,9.08,-0.76,1.02,-0.38,0.1,0.03,-0.06,5133,2019-03-25 16:52:21:411
-0.15,1.15,9.08,-0.76,1.02,-0.38,0.1,0.03,-0.06,5138,2019-03-25 16:52:21:416
-1.97,1.89,7.57,-2.25,1.6,-2.34,0.02,-0.02,0.03,5143,2019-03-25 16:52:21:421
-1.97,1.89,7.57,-2.25,1.6,-2.34,0.02,-0.02,0.03,5148,2019-03-25 16:52:21:426
-1.97,1.89,7.57,-2.25,1.6,-2.34,0.02,-0.02,0.03,5153,2019-03-25 16:52:21:431
-1.97,1.89,7.57,-2.25,1.6,-2.34,0.02,-0.02,0.03,5158,2019-03-25 16:52:21:436
-2.27,1.18,5.01,-2.27,0.8,-4.17,-0.04,-0.05,0.06,5163,2019-03-25 16:52:21:441
-2.27,1.18,5.01,-2.27,0.8,-4.17,-0.04,-0.05,0.06,5168,2019-03-25 16:52:21:446
-2.27,1.18,5.01,-2.27,0.8,-4.17,-0.04,-0.05,0.06,5173,2019-03-25 16:52:21:451
-2.27,1.18,5.01,-2.27,0.8,-4.17,-0.04,-0.05,0.06,5178,2019-03-25 16:52:21:456
-2.27,1.18,5.01,-2.27,0.8,-4.17,-0.04,-0.05,0.06,5183,2019-03-25 16:52:21:461
-0.24,4.7,17.18,0.01,3.99,7.44,0.05,-0.01,0.0,5188,2019-03-25 16:52:21:466
-0.24,4.7,17.18,0.01,3.99,7.44,0.05,-0.01,0.0,5193,2019-03-25 16:52:21:471
-0.24,4.7,17.18,0.01,3.99,7.44,0.05,-0.01,0.0,5198,2019-03-25 16:52:21:476
-0.91,0.18,10.29,-0.72,-0.57,0.65,0.14,0.0,-0.01,5204,2019-03-25 16:52:21:482
-0.91,0.18,10.29,-0.72,-0.57,0.65,0.14,0.0,-0.01,5208,2019-03-25 16:52:21:486
-0.91,0.18,10.29,-0.72,-0.57,0.65,0.14,0.0,-0.01,5213,2019-03-25 16:52:21:491
-0.91,0.18,10.29,-0.72,-0.57,0.65,0.14,0.0,-0.01,5218,2019-03-25 16:52:21:496
2.34,1.96,10.34,2.39,1.06,0.26,-0.06,0.01,0.03,5223,2019-03-25 16:52:21:501
2.34,1.96,10.34,2.39,1.06,0.26,-0.06,0.01,0.03,5229,2019-03-25 16:52:21:507
2.34,1.96,10.34,2.39,1.06,0.26,-0.06,0.01,0.03,5233,2019-03-25 16:52:21:511
2.34,1.96,10.34,2.39,1.06,0.26,-0.06,0.01,0.03,5238,2019-03-25 16:52:21:516
0.57,-0.56,8.72,0.39,-1.42,-0.89,0.06,-0.02,0.08,5243,2019-03-25 16:52:21:521
0.57,-0.56,8.72,0.39,-1.42,-0.89,0.06,-0.02,0.08,5248,2019-03-25 16:52:21:526
0.57,-0.56,8.72,0.39,-1.42,-0.89,0.06,-0.02,0.08,5253,2019-03-25 16:52:21:531
0.57,-0.56,8.72,0.39,-1.42,-0.89,0.06,-0.02,0.08,5258,2019-03-25 16:52:21:536
0.57,-0.56,8.72,0.39,-1.42,-0.89,0.06,-0.02,0.08,5263,2019-03-25 16:52:21:541
1.83,1.26,8.95,1.51,0.09,-1.03,-0.04,-0.01,0.16,5268,2019-03-25 16:52:21:546
1.83,1.26,8.95,1.51,0.09,-1.03,-0.04,-0.01,0.16,5273,2019-03-25 16:52:21:551
1.83,1.26,8.95,1.51,0.09,-1.03,-0.04,-0.01,0.16,5278,2019-03-25 16:52:21:556
-0.42,2.18,8.61,-0.41,0.82,-1.07,0.14,-0.01,0.12,5283,2019-03-25 16:52:21:561
-0.42,2.18,8.61,-0.41,0.82,-1.07,0.14,-0.01,0.12,5288,2019-03-25 16:52:21:566
-0.42,2.18,8.61,-0.41,0.82,-1.07,0.14,-0.01,0.12,5293,2019-03-25 16:52:21:571
-0.42,2.18,8.61,-0.41,0.82,-1.07,0.14,-0.01,0.12,5298,2019-03-25 16:52:21:576
1.12,0.01,8.87,1.31,-1.35,-0.87,0.02,0.09,0.12,5303,2019-03-25 16:52:21:581
1.12,0.01,8.87,1.31,-1.35,-0.87,0.02,0.09,0.12,5308,2019-03-25 16:52:21:586
1.12,0.01,8.87,1.31,-1.35,-0.87,0.02,0.09,0.12,5313,2019-03-25 16:52:21:591
1.12,0.01,8.87,1.31,-1.35,-0.87,0.02,0.09,0.12,5318,2019-03-25 16:52:21:596
0.07,1.32,6.73,0.11,-0.11,-2.66,-0.16,0.01,0.13,5324,2019-03-25 16:52:21:602
0.07,1.32,6.73,0.11,-0.11,-2.66,-0.16,0.01,0.13,5328,2019-03-25 16:52:21:606
0.07,1.32,6.73,0.11,-0.11,-2.66,-0.16,0.01,0.13,5333,2019-03-25 16:52:21:611
0.07,1.32,6.73,0.11,-0.11,-2.66,-0.16,0.01,0.13,5338,2019-03-25 16:52:21:616
0.07,1.32,6.73,0.11,-0.11,-2.66,-0.16,0.01,0.13,5344,2019-03-25 16:52:21:622
1.15,1.85,15.96,0.93,0.53,5.92,-0.21,-0.05,0.05,5348,2019-03-25 16:52:21:626
1.15,1.85,15.96,0.93,0.53,5.92,-0.21,-0.05,0.05,5353,2019-03-25 16:52:21:631
1.15,1.85,15.96,0.93,0.53,5.92,-0.21,-0.05,0.05,5358,2019-03-25 16:52:21:636
3.43,0.52,10.06,0.18,-1.67,-3.97,0.02,0.0,-0.04,5363,2019-03-25 16:52:21:641
3.43,0.52,10.06,0.18,-1.67,-3.97,0.02,0.0,-0.04,5369,2019-03-25 16:52:21:647
3.43,0.52,10.06,0.18,-1.67,-3.97,0.02,0.0,-0.04,5373,2019-03-25 16:52:21:651
1.0,0.61,8.04,0.18,-1.67,-3.97,0.02,0.0,-0.04,5378,2019-03-25 16:52:21:656
1.0,0.61,8.04,0.18,-1.67,-3.97,0.02,0.0,-0.04,5383,2019-03-25 16:52:21:661
1.0,0.61,8.04,0.18,-0.2,-1.79,-0.03,0.0,-0.08,5388,2019-03-25 16:52:21:666
1.0,0.61,8.04,0.18,-0.2,-1.79,-0.03,0.0,-0.08,5393,2019-03-25 16:52:21:671
1.06,-0.6,13.01,0.18,-0.2,-1.79,-0.06,-0.01,-0.07,5399,2019-03-25 16:52:21:677
1.06,-0.6,13.01,0.18,-0.2,-1.79,-0.06,-0.01,-0.07,5402,2019-03-25 16:52:21:680
1.06,-0.6,13.01,0.2,-1.27,2.88,-0.06,-0.01,-0.07,5408,2019-03-25 16:52:21:686
1.06,-0.6,13.01,0.2,-1.27,2.88,-0.06,-0.01,-0.07,5413,2019-03-25 16:52:21:691
1.23,0.08,11.53,0.2,-1.27,2.88,0.05,0.01,-0.09,5418,2019-03-25 16:52:21:696
1.23,0.08,11.53,0.43,-0.52,1.21,0.05,0.01,-0.09,5423,2019-03-25 16:52:21:701
1.23,0.08,11.53,0.43,-0.52,1.21,0.05,0.01,-0.09,5428,2019-03-25 16:52:21:706
1.23,0.08,11.53,0.43,-0.52,1.21,0.05,0.01,-0.09,5433,2019-03-25 16:52:21:711
-0.54,0.96,8.71,-1.3,0.24,-1.88,0.0,-0.04,-0.12,5438,2019-03-25 16:52:21:716
-0.54,0.96,8.71,-1.3,0.24,-1.88,0.0,-0.04,-0.12,5443,2019-03-25 16:52:21:721
-0.54,0.96,8.71,-1.3,0.24,-1.88,0.0,-0.04,-0.12,5448,2019-03-25 16:52:21:726
-0.54,0.96,8.71,-1.3,0.24,-1.88,0.0,-0.04,-0.12,5453,2019-03-25 16:52:21:731
-0.54,0.96,8.71,-1.3,0.24,-1.88,0.0,-0.04,-0.12,5460,2019-03-25 16:52:21:738
-0.54,0.96,8.71,-1.3,0.24,-1.88,0.0,-0.04,-0.12,5463,2019-03-25 16:52:21:741
1.11,-0.56,7.74,0.32,-1.07,-2.66,0.08,-0.03,-0.2,5468,2019-03-25 16:52:21:746
1.11,-0.56,7.74,0.32,-1.07,-2.66,0.08,-0.03,-0.2,5473,2019-03-25 16:52:21:751
0.78,0.43,11.46,0.32,-1.07,-2.66,-0.04,-0.04,-0.2,5478,2019-03-25 16:52:21:756
0.78,0.43,11.46,0.32,-1.07,-2.66,-0.04,-0.04,-0.2,5483,2019-03-25 16:52:21:761
0.78,0.43,11.46,-0.12,0.01,0.91,-0.04,-0.04,-0.2,5488,2019-03-25 16:52:21:766
0.78,0.43,11.46,-0.12,0.01,0.91,-0.04,-0.04,-0.2,5493,2019-03-25 16:52:21:771
1.61,-0.5,9.1,0.57,-0.9,-1.39,0.04,0.0,-0.22,5498,2019-03-25 16:52:21:776
1.61,-0.5,9.1,0.57,-0.9,-1.39,0.04,0.0,-0.22,5503,2019-03-25 16:52:21:781
1.61,-0.5,9.1,0.57,-0.9,-1.39,0.04,0.0,-0.22,5508,2019-03-25 16:52:21:786
1.61,-0.5,9.1,0.57,-0.9,-1.39,0.04,0.0,-0.22,5513,2019-03-25 16:52:21:791
1.46,0.06,10.67,0.41,-0.18,-0.17,-0.03,-0.01,-0.19,5518,2019-03-25 16:52:21:796
1.46,0.06,10.67,0.41,-0.18,-0.17,-0.03,-0.01,-0.19,5523,2019-03-25 16:52:21:801
1.46,0.06,10.67,0.41,-0.18,-0.17,-0.03,-0.01,-0.19,5528,2019-03-25 16:52:21:806
1.46,0.06,10.67,0.41,-0.18,-0.17,-0.03,-0.01,-0.19,5533,2019-03-25 16:52:21:811
1.5,-1.12,10.5,0.39,-1.14,0.3,0.01,0.01,-0.19,5538,2019-03-25 16:52:21:816
1.5,-1.12,10.5,0.39,-1.14,0.3,0.01,0.01,-0.19,5543,2019-03-25 16:52:21:821
1.5,-1.12,10.5,0.39,-1.14,0.3,0.01,0.01,-0.19,5548,2019-03-25 16:52:21:826
1.5,-1.12,10.5,0.39,-1.14,0.3,0.01,0.01,-0.19,5554,2019-03-25 16:52:21:832
1.5,-1.12,10.5,0.39,-1.14,0.3,0.01,0.01,-0.19,5558,2019-03-25 16:52:21:836
1.5,-1.12,10.5,0.39,-1.14,0.3,0.01,0.01,-0.19,5563,2019-03-25 16:52:21:841
0.65,1.54,14.78,-0.4,1.49,4.16,-0.04,0.0,-0.13,5568,2019-03-25 16:52:21:846
0.65,1.54,14.78,-0.4,1.49,4.16,-0.04,0.0,-0.13,5574,2019-03-25 16:52:21:852
0.65,1.54,14.78,-0.4,1.49,4.16,0.18,0.04,-0.16,5578,2019-03-25 16:52:21:856
0.65,1.54,14.78,-0.4,1.49,4.16,0.18,0.04,-0.16,5583,2019-03-25 16:52:21:861
0.65,1.54,14.78,-0.4,1.49,4.16,0.18,0.04,-0.16,5588,2019-03-25 16:52:21:866
0.65,1.54,14.78,-0.4,1.49,4.16,0.18,0.04,-0.16,5594,2019-03-25 16:52:21:872
0.65,1.54,14.78,-0.4,1.49,4.16,0.18,0.04,-0.16,5598,2019-03-25 16:52:21:876
-0.61,0.71,9.52,-1.25,0.66,-0.51,0.15,-0.08,-0.15,5603,2019-03-25 16:52:21:881
-0.61,0.71,9.52,-1.25,0.66,-0.51,0.15,-0.08,-0.15,5610,2019-03-25 16:52:21:888
-0.61,0.71,9.52,-1.25,0.66,-0.51,0.15,-0.08,-0.15,5613,2019-03-25 16:52:21:891
1.78,-1.11,6.23,-1.25,0.66,-0.51,0.15,-0.08,-0.15,5618,2019-03-25 16:52:21:896
1.78,-1.11,6.23,-1.25,0.66,-0.51,0.07,0.01,-0.14,5623,2019-03-25 16:52:21:901
1.78,-1.11,6.23,1.22,-1.06,-3.23,0.07,0.01,-0.14,5630,2019-03-25 16:52:21:908
1.78,-1.11,6.23,1.22,-1.06,-3.23,0.07,0.01,-0.14,5633,2019-03-25 16:52:21:911
1.78,-1.11,6.23,1.22,-1.06,-3.23,0.07,0.01,-0.14,5642,2019-03-25 16:52:21:920
1.78,-1.11,6.23,1.22,-1.06,-3.23,0.07,0.01,-0.14,5642,2019-03-25 16:52:21:920
-0.03,0.91,14.5,-0.68,0.93,4.74,-0.21,-0.08,-0.13,5648,2019-03-25 16:52:21:926
-0.03,0.91,14.5,-0.68,0.93,4.74,-0.21,-0.08,-0.13,5653,2019-03-25 16:52:21:931
-0.28,-2.68,10.48,-0.68,0.93,4.74,0.14,0.0,-0.2,5658,2019-03-25 16:52:21:936
-0.28,-2.68,10.48,-0.93,-2.57,0.48,0.14,0.0,-0.2,5667,2019-03-25 16:52:21:945
-0.28,-2.68,10.48,-0.93,-2.57,0.48,0.14,0.0,-0.2,5668,2019-03-25 16:52:21:946
-0.28,-2.68,10.48,-0.93,-2.57,0.48,0.14,0.0,-0.2,5673,2019-03-25 16:52:21:951
-0.95,-1.61,11.46,-1.46,-1.22,1.17,0.07,-0.02,-0.16,5678,2019-03-25 16:52:21:956
-0.95,-1.61,11.46,-1.46,-1.22,1.17,0.07,-0.02,-0.16,5688,2019-03-25 16:52:21:966
-0.95,-1.61,11.46,-1.46,-1.22,1.17,0.07,-0.02,-0.16,5689,2019-03-25 16:52:21:967
-0.95,-1.61,11.46,-1.46,-1.22,1.17,0.07,-0.02,-0.16,5693,2019-03-25 16:52:21:971
0.01,-3.36,6.66,-0.18,-2.63,-3.38,0.02,0.01,0.06,5698,2019-03-25 16:52:21:976
0.01,-3.36,6.66,-0.18,-2.63,-3.38,0.02,0.01,0.06,5703,2019-03-25 16:52:21:981
0.01,-3.36,6.66,-0.18,-2.63,-3.38,0.02,0.01,0.06,5708,2019-03-25 16:52:21:986
0.01,-3.36,6.66,-0.18,-2.63,-3.38,0.02,0.01,0.06,5713,2019-03-25 16:52:21:991
0.61,2.15,9.28,0.43,2.83,-0.71,0.06,-0.03,0.17,5718,2019-03-25 16:52:21:996
0.61,2.15,9.28,0.43,2.83,-0.71,0.06,-0.03,0.17,5722,2019-03-25 16:52:22:000
0.61,2.15,9.28,0.43,2.83,-0.71,0.06,-0.03,0.17,5728,2019-03-25 16:52:22:006
0.61,2.15,9.28,0.43,2.83,-0.71,0.06,-0.03,0.17,5733,2019-03-25 16:52:22:011
0.61,2.15,9.28,0.43,2.83,-0.71,0.06,-0.03,0.17,5738,2019-03-25 16:52:22:016
0.61,2.15,9.28,0.43,2.83,-0.71,0.06,-0.03,0.17,5742,2019-03-25 16:52:22:020
0.61,2.15,9.28,0.43,2.83,-0.71,0.06,-0.03,0.17,5748,2019-03-25 16:52:22:026
-0.22,-0.08,6.02,-0.21,0.41,-3.87,-0.04,0.08,0.17,5753,2019-03-25 16:52:22:031
-0.22,-0.08,6.02,-0.21,0.41,-3.87,-0.04,0.08,0.17,5759,2019-03-25 16:52:22:037
-0.22,-0.08,6.02,-0.21,0.41,-3.87,-0.04,0.08,0.17,5765,2019-03-25 16:52:22:043
-0.22,-0.08,6.02,-0.21,0.41,-3.87,-0.04,0.08,0.17,5768,2019-03-25 16:52:22:046
1.14,2.21,10.0,1.1,2.56,0.4,0.0,0.01,0.13,5773,2019-03-25 16:52:22:051
1.14,2.21,10.0,1.1,2.56,0.4,0.0,0.01,0.13,5778,2019-03-25 16:52:22:056
1.14,2.21,10.0,1.1,2.56,0.4,0.0,0.01,0.13,5784,2019-03-25 16:52:22:062
1.14,2.21,10.0,1.1,2.56,0.4,0.0,0.01,0.13,5787,2019-03-25 16:52:22:065
-0.02,2.68,10.07,-0.04,2.84,-0.05,0.06,0.04,0.07,5793,2019-03-25 16:52:22:071
-0.02,2.68,10.07,-0.04,2.84,-0.05,0.06,0.04,0.07,5798,2019-03-25 16:52:22:076
-0.02,2.68,10.07,-0.04,2.84,-0.05,0.06,0.04,0.07,5803,2019-03-25 16:52:22:081
-0.02,2.68,10.07,-0.04,2.84,-0.05,0.06,0.04,0.07,5808,2019-03-25 16:52:22:086
-0.02,2.68,10.07,-0.04,2.84,-0.05,0.06,0.04,0.07,5813,2019-03-25 16:52:22:091
-0.02,2.68,10.07,-0.04,2.84,-0.05,0.06,0.04,0.07,5824,2019-03-25 16:52:22:102
-0.02,2.68,10.07,-0.04,2.84,-0.05,0.06,0.04,0.07,5825,2019-03-25 16:52:22:103
2.16,2.31,8.53,1.88,2.06,-1.8,-0.02,0.03,0.07,5828,2019-03-25 16:52:22:106
2.16,2.31,8.53,1.88,2.06,-1.8,-0.02,0.03,0.07,5833,2019-03-25 16:52:22:111
2.16,2.31,8.53,1.88,2.06,-1.8,-0.02,0.03,0.07,5837,2019-03-25 16:52:22:115
0.5,0.38,7.97,0.25,0.16,-1.74,0.1,0.0,0.03,5850,2019-03-25 16:52:22:128
0.5,0.38,7.97,0.25,0.16,-1.74,0.1,0.0,0.03,5850,2019-03-25 16:52:22:128
0.5,0.38,7.97,0.25,0.16,-1.74,0.1,0.0,0.03,5853,2019-03-25 16:52:22:131
0.5,0.38,7.97,0.25,0.16,-1.74,0.1,0.0,0.03,5858,2019-03-25 16:52:22:136
0.5,0.38,7.97,0.25,0.16,-1.74,0.1,0.0,0.03,5865,2019-03-25 16:52:22:143
0.5,0.38,7.97,0.25,0.16,-1.74,0.1,0.0,0.03,5872,2019-03-25 16:52:22:150
0.5,0.38,7.97,0.25,0.16,-1.74,0.1,0.0,0.03,5873,2019-03-25 16:52:22:151
0.5,0.38,7.97,0.25,0.16,-1.74,0.1,0.0,0.03,5881,2019-03-25 16:52:22:159
0.5,0.38,7.97,0.25,0.16,-1.74,0.1,0.0,0.03,5883,2019-03-25 16:52:22:161
-0.22,-0.51,7.23,-0.6,-1.33,-1.85,0.07,0.02,0.0,5888,2019-03-25 16:52:22:166
-0.22,-0.51,7.23,-0.6,-1.33,-1.85,0.07,0.02,0.0,5893,2019-03-25 16:52:22:171
3.21,3.61,10.05,0.79,0.91,-5.63,0.06,0.12,0.0,5899,2019-03-25 16:52:22:177
3.21,3.61,10.05,0.79,0.91,-5.63,0.06,0.12,0.0,5903,2019-03-25 16:52:22:181
3.21,3.61,10.05,0.79,0.91,-5.63,0.06,0.12,0.0,5908,2019-03-25 16:52:22:186
3.21,3.61,10.05,0.79,0.91,-5.63,0.06,0.12,0.0,5913,2019-03-25 16:52:22:191
3.21,3.61,10.05,0.79,0.91,-5.63,0.06,0.12,0.0,5918,2019-03-25 16:52:22:196
3.21,3.61,10.05,0.79,0.91,-5.63,0.06,0.12,0.0,5926,2019-03-25 16:52:22:204
3.21,3.61,10.05,0.79,0.91,-5.63,0.06,0.12,0.0,5928,2019-03-25 16:52:22:206
3.21,3.61,10.05,0.79,0.91,-5.63,0.06,0.12,0.0,5938,2019-03-25 16:52:22:216
3.21,3.61,10.05,0.79,0.91,-5.63,0.06,0.12,0.0,5939,2019-03-25 16:52:22:217
0.54,2.89,13.5,-0.1,1.06,3.99,0.14,0.01,-0.06,5943,2019-03-25 16:52:22:221
0.54,2.89,13.5,-0.1,1.06,3.99,0.14,0.01,-0.06,5948,2019-03-25 16:52:22:226
0.54,2.89,13.5,-0.1,1.06,3.99,0.14,0.01,-0.06,5953,2019-03-25 16:52:22:231
0.54,2.89,13.5,-0.1,1.06,3.99,0.14,0.01,-0.06,5959,2019-03-25 16:52:22:237
-0.39,1.26,10.94,-1.31,-0.77,1.09,-0.11,0.02,-0.15,5964,2019-03-25 16:52:22:242
-0.39,1.26,10.94,-1.31,-0.77,1.09,-0.11,0.02,-0.15,5968,2019-03-25 16:52:22:246
-0.39,1.26,10.94,-1.31,-0.77,1.09,-0.11,0.02,-0.15,5973,2019-03-25 16:52:22:251
-0.39,1.26,10.94,-1.31,-0.77,1.09,-0.11,0.02,-0.15,5978,2019-03-25 16:52:22:256
-0.39,1.26,10.94,-1.31,-0.77,1.09,-0.11,0.02,-0.15,5983,2019-03-25 16:52:22:261
-0.39,1.26,10.94,-1.31,-0.77,1.09,-0.11,0.02,-0.15,5988,2019-03-25 16:52:22:266
1.71,-0.53,10.06,0.71,-2.33,0.19,-0.05,0.04,-0.25,5994,2019-03-25 16:52:22:272
1.71,-0.53,10.06,0.71,-2.33,0.19,-0.05,0.04,-0.25,5998,2019-03-25 16:52:22:276
1.71,-0.53,10.06,0.71,-2.33,0.19,-0.07,0.02,-0.29,6004,2019-03-25 16:52:22:282
1.71,-0.53,10.06,0.71,-2.33,0.19,-0.07,0.02,-0.29,6011,2019-03-25 16:52:22:289
1.71,-0.53,10.06,0.71,-2.33,0.19,-0.07,0.02,-0.29,6016,2019-03-25 16:52:22:294
1.71,-0.53,10.06,0.71,-2.33,0.19,-0.07,0.02,-0.29,6018,2019-03-25 16:52:22:296
1.71,-0.53,10.06,0.71,-2.33,0.19,-0.07,0.02,-0.29,6024,2019-03-25 16:52:22:302
1.71,-0.53,10.06,0.71,-2.33,0.19,-0.07,0.02,-0.29,6035,2019-03-25 16:52:22:313
1.71,-0.53,10.06,0.71,-2.33,0.19,-0.07,0.02,-0.29,6036,2019-03-25 16:52:22:314
2.42,-0.47,8.63,1.57,-1.52,-1.29,-0.11,0.04,-0.26,6044,2019-03-25 16:52:22:322
2.42,-0.47,8.63,1.57,-1.52,-1.29,-0.11,0.04,-0.26,6045,2019-03-25 16:52:22:323
2.42,-0.47,8.63,1.57,-1.52,-1.29,-0.11,0.04,-0.26,6050,2019-03-25 16:52:22:328
2.42,-0.47,8.63,1.57,-1.52,-1.29,-0.11,0.04,-0.26,6055,2019-03-25 16:52:22:333
2.42,-0.47,8.63,1.57,-1.52,-1.29,-0.11,0.04,-0.26,6057,2019-03-25 16:52:22:335
3.16,-2.43,11.35,2.24,-3.25,1.14,0.02,0.0,-0.26,6063,2019-03-25 16:52:22:341
3.16,-2.43,11.35,2.24,-3.25,1.14,0.02,0.0,-0.26,6069,2019-03-25 16:52:22:347
3.16,-2.43,11.35,2.24,-3.25,1.14,0.02,0.0,-0.26,6074,2019-03-25 16:52:22:352
-1.65,1.99,9.95,-2.58,0.99,-0.54,0.08,-0.01,0.0,6078,2019-03-25 16:52:22:356
-1.65,1.99,9.95,-2.58,0.99,-0.54,0.08,-0.01,0.0,6084,2019-03-25 16:52:22:362
-1.65,1.99,9.95,-2.58,0.99,-0.54,0.08,-0.01,0.0,6088,2019-03-25 16:52:22:366
-1.65,1.99,9.95,-2.58,0.99,-0.54,0.08,-0.01,0.0,6093,2019-03-25 16:52:22:371
-1.65,1.99,9.95,-2.58,0.99,-0.54,0.08,-0.01,0.0,6099,2019-03-25 16:52:22:377
-1.65,1.99,9.95,-2.58,0.99,-0.54,0.08,-0.01,0.0,6102,2019-03-25 16:52:22:380
-2.41,1.98,12.79,-3.02,1.09,2.41,0.0,0.07,0.09,6117,2019-03-25 16:52:22:395
-2.41,1.98,12.79,-3.02,1.09,2.41,0.0,0.07,0.09,6119,2019-03-25 16:52:22:397
-2.41,1.98,12.79,-3.02,1.09,2.41,0.0,0.07,0.09,6119,2019-03-25 16:52:22:397
-2.41,1.98,12.79,-3.02,1.09,2.41,0.0,0.07,0.09,6128,2019-03-25 16:52:22:406
-1.63,2.68,7.57,-1.97,1.75,-3.03,0.1,-0.05,0.11,6129,2019-03-25 16:52:22:407
-1.63,2.68,7.57,-1.97,1.75,-3.03,0.1,-0.05,0.11,6133,2019-03-25 16:52:22:411
-1.63,2.68,7.57,-1.97,1.75,-3.03,0.1,-0.05,0.11,6138,2019-03-25 16:52:22:416
-1.63,2.68,7.57,-1.97,1.75,-3.03,0.1,-0.05,0.11,6143,2019-03-25 16:52:22:421
-1.63,2.68,7.57,-1.97,1.75,-3.03,0.1,-0.05,0.11,6149,2019-03-25 16:52:22:427
0.44,1.11,11.39,0.46,0.53,0.93,0.04,-0.04,0.09,6153,2019-03-25 16:52:22:431
0.44,1.11,11.39,0.46,0.53,0.93,0.04,-0.04,0.09,6158,2019-03-25 16:52:22:436
0.44,1.11,11.39,0.46,0.53,0.93,0.04,-0.04,0.09,6163,2019-03-25 16:52:22:441
0.44,1.11,11.39,0.46,0.53,0.93,0.04,-0.04,0.09,6170,2019-03-25 16:52:22:448
0.44,1.11,11.39,0.46,0.53,0.93,0.04,-0.04,0.09,6173,2019-03-25 16:52:22:451
0.44,1.11,11.39,0.46,0.53,0.93,0.04,-0.04,0.09,6177,2019-03-25 16:52:22:455
0.44,1.11,11.39,0.46,0.53,0.93,0.04,-0.04,0.09,6183,2019-03-25 16:52:22:461
-1.08,-0.36,12.13,-1.07,-0.83,1.78,0.01,-0.03,0.13,6191,2019-03-25 16:52:22:469
-1.08,-0.36,12.13,-1.07,-0.83,1.78,0.01,-0.03,0.13,6194,2019-03-25 16:52:22:472
2.01,1.71,10.55,1.87,0.91,0.14,0.09,0.07,0.18,6198,2019-03-25 16:52:22:476
2.01,1.71,10.55,1.87,0.91,0.14,0.09,0.07,0.18,6202,2019-03-25 16:52:22:480
2.01,1.71,10.55,1.87,0.91,0.14,0.09,0.07,0.18,6209,2019-03-25 16:52:22:487
2.01,1.71,10.55,1.87,0.91,0.14,0.09,0.07,0.18,6213,2019-03-25 16:52:22:491
2.01,1.71,10.55,1.87,0.91,0.14,0.09,0.07,0.18,6218,2019-03-25 16:52:22:496
-1.21,0.04,3.7,-1.26,-0.87,-6.06,0.08,0.03,0.18,6223,2019-03-25 16:52:22:501
-1.21,0.04,3.7,-1.26,-0.87,-6.06,0.08,0.03,0.18,6230,2019-03-25 16:52:22:508
-1.21,0.04,3.7,-1.26,-0.87,-6.06,0.08,0.03,0.18,6234,2019-03-25 16:52:22:512
-1.21,0.04,3.7,-1.26,-0.87,-6.06,0.08,0.03,0.18,6238,2019-03-25 16:52:22:516
-1.21,0.04,3.7,-1.26,-0.87,-6.06,0.08,0.03,0.18,6243,2019-03-25 16:52:22:521
3.38,4.12,14.98,3.34,2.71,4.99,0.04,0.02,0.13,6248,2019-03-25 16:52:22:526
3.38,4.12,14.98,3.34,2.71,4.99,0.04,0.02,0.13,6253,2019-03-25 16:52:22:531
3.38,4.12,14.98,3.34,2.71,4.99,0.04,0.02,0.13,6258,2019-03-25 16:52:22:536
-1.29,0.98,7.67,-1.1,-0.48,-2.17,-0.1,-0.04,0.1,6265,2019-03-25 16:52:22:543
-1.29,0.98,7.67,-1.1,-0.48,-2.17,-0.1,-0.04,0.1,6268,2019-03-25 16:52:22:546
-1.29,0.98,7.67,-1.1,-0.48,-2.17,-0.1,-0.04,0.1,6273,2019-03-25 16:52:22:551
3.91,0.79,8.37,3.9,-0.56,-1.31,-0.02,0.08,-0.03,6282,2019-03-25 16:52:22:560
3.91,0.79,8.37,3.9,-0.56,-1.31,-0.02,0.08,-0.03,6283,2019-03-25 16:52:22:561
3.91,0.79,8.37,3.9,-0.56,-1.31,-0.02,0.08,-0.03,6291,2019-03-25 16:52:22:569
3.91,0.79,8.37,3.9,-0.56,-1.31,-0.02,0.08,-0.03,6294,2019-03-25 16:52:22:572
3.91,0.79,8.37,3.9,-0.56,-1.31,-0.02,0.08,-0.03,6299,2019-03-25 16:52:22:577
0.58,0.36,7.47,0.19,-0.87,-1.9,0.06,0.05,-0.06,6303,2019-03-25 16:52:22:581
0.58,0.36,7.47,0.19,-0.87,-1.9,0.06,0.05,-0.06,6308,2019-03-25 16:52:22:586
0.58,0.36,7.47,0.19,-0.87,-1.9,0.06,0.05,-0.06,6313,2019-03-25 16:52:22:591
1.44,0.21,11.61,0.84,-0.81,2.34,0.04,0.0,-0.08,6318,2019-03-25 16:52:22:596
1.44,0.21,11.61,0.84,-0.81,2.34,0.04,0.0,-0.08,6325,2019-03-25 16:52:22:603
1.44,0.21,11.61,0.84,-0.81,2.34,0.04,0.0,-0.08,6329,2019-03-25 16:52:22:607
1.44,0.21,11.61,0.84,-0.81,2.34,0.04,0.0,-0.08,6333,2019-03-25 16:52:22:611
-0.93,1.37,13.38,-1.68,0.26,4.09,0.04,0.0,-0.09,6339,2019-03-25 16:52:22:617
-0.93,1.37,13.38,-1.68,0.26,4.09,0.04,0.0,-0.09,6344,2019-03-25 16:52:22:622
-0.93,1.37,13.38,-1.68,0.26,4.09,0.04,0.0,-0.09,6347,2019-03-25 16:52:22:625
-0.93,1.37,13.38,-1.68,0.26,4.09,0.04,0.0,-0.09,6354,2019-03-25 16:52:22:632
-0.93,1.37,13.38,-1.68,0.26,4.09,0.04,0.0,-0.09,6358,2019-03-25 16:52:22:636
0.67,-0.09,10.5,0.02,-1.22,0.64,-0.01,-0.02,-0.08,6363,2019-03-25 16:52:22:641
0.67,-0.09,10.5,0.02,-1.22,0.64,-0.01,-0.02,-0.08,6371,2019-03-25 16:52:22:649
0.67,-0.09,10.5,0.02,-1.22,0.64,-0.01,-0.02,-0.08,6374,2019-03-25 16:52:22:652
0.67,-0.09,10.5,0.02,-1.22,0.64,-0.01,-0.02,-0.08,6378,2019-03-25 16:52:22:656
0.67,-0.09,10.5,0.02,-1.22,0.64,-0.01,-0.02,-0.08,6384,2019-03-25 16:52:22:662
0.67,-0.09,10.5,0.02,-1.22,0.64,-0.01,-0.02,-0.08,6390,2019-03-25 16:52:22:668
0.67,-0.09,10.5,0.02,-1.22,0.64,-0.01,-0.02,-0.08,6395,2019-03-25 16:52:22:673
0.67,-0.09,10.5,0.02,-1.22,0.64,-0.01,-0.02,-0.08,6398,2019-03-25 16:52:22:676
1.38,-0.05,4.64,0.67,-1.14,-4.74,0.02,0.0,-0.16,6404,2019-03-25 16:52:22:682
1.38,-0.05,4.64,0.67,-1.14,-4.74,0.02,0.0,-0.16,6408,2019-03-25 16:52:22:686
1.38,-0.05,4.64,0.67,-1.14,-4.74,0.02,0.0,-0.16,6413,2019-03-25 16:52:22:691
-0.09,-3.54,3.84,-0.95,-4.37,-6.11,0.13,0.02,-0.2,6419,2019-03-25 16:52:22:697
-0.09,-3.54,3.84,-0.95,-4.37,-6.11,0.13,0.02,-0.2,6425,2019-03-25 16:52:22:703
-0.09,-3.54,3.84,-0.95,-4.37,-6.11,0.13,0.02,-0.2,6427,2019-03-25 16:52:22:705
-0.09,-3.54,3.84,-0.95,-4.37,-6.11,0.13,0.02,-0.2,6433,2019-03-25 16:52:22:711
-0.09,-3.54,3.84,-0.95,-4.37,-6.11,0.13,0.02,-0.2,6438,2019-03-25 16:52:22:716
-0.09,-3.54,3.84,-0.95,-4.37,-6.11,0.13,0.02,-0.2,6443,2019-03-25 16:52:22:721
1.4,0.22,10.68,0.63,-0.33,1.0,-0.05,-0.04,-0.16,6448,2019-03-25 16:52:22:726
1.4,0.22,10.68,0.63,-0.33,1.0,-0.05,-0.04,-0.16,6454,2019-03-25 16:52:22:732
1.4,0.22,10.68,0.63,-0.33,1.0,-0.05,-0.04,-0.16,6458,2019-03-25 16:52:22:736
1.4,0.22,10.68,0.63,-0.33,1.0,-0.05,-0.04,-0.16,6465,2019-03-25 16:52:22:743
-1.46,-1.93,13.25,-2.27,-1.96,3.57,-0.07,0.0,-0.15,6468,2019-03-25 16:52:22:746
-1.46,-1.93,13.25,-2.27,-1.96,3.57,-0.07,0.0,-0.15,6473,2019-03-25 16:52:22:751
-1.46,-1.93,13.25,-2.27,-1.96,3.57,-0.07,0.0,-0.15,6481,2019-03-25 16:52:22:759
3.5,-0.54,8.34,2.67,-0.5,-1.23,0.0,-0.04,-0.18,6483,2019-03-25 16:52:22:761
3.5,-0.54,8.34,2.67,-0.5,-1.23,0.0,-0.04,-0.18,6488,2019-03-25 16:52:22:766
3.5,-0.54,8.34,2.67,-0.5,-1.23,0.0,-0.04,-0.18,6494,2019-03-25 16:52:22:772
3.5,-0.54,8.34,2.67,-0.5,-1.23,0.0,-0.04,-0.18,6498,2019-03-25 16:52:22:776
-1.03,-0.65,9.23,-1.54,-0.39,-0.24,-0.02,-0.02,-0.19,6505,2019-03-25 16:52:22:783
-1.03,-0.65,9.23,-1.54,-0.39,-0.24,-0.02,-0.02,-0.19,6508,2019-03-25 16:52:22:786
-1.03,-0.65,9.23,-1.54,-0.39,-0.24,-0.02,-0.02,-0.19,6513,2019-03-25 16:52:22:791
-1.03,-0.65,9.23,-1.54,-0.39,-0.24,-0.02,-0.02,-0.19,6518,2019-03-25 16:52:22:796
0.77,-0.02,11.2,0.11,0.34,1.65,-0.23,0.01,-0.17,6524,2019-03-25 16:52:22:802
0.77,-0.02,11.2,0.11,0.34,1.65,-0.23,0.01,-0.17,6529,2019-03-25 16:52:22:807
0.77,-0.02,11.2,0.11,0.34,1.65,-0.23,0.01,-0.17,6533,2019-03-25 16:52:22:811
-0.21,0.13,9.91,-0.9,0.53,0.19,-0.06,-0.04,-0.22,6538,2019-03-25 16:52:22:816
-0.21,0.13,9.91,-0.9,0.53,0.19,-0.06,-0.04,-0.22,6543,2019-03-25 16:52:22:821
-0.21,0.13,9.91,-0.9,0.53,0.19,-0.06,-0.04,-0.22,6549,2019-03-25 16:52:22:827
-0.21,0.13,9.91,-0.9,0.53,0.19,-0.06,-0.04,-0.22,6553,2019-03-25 16:52:22:831
-0.21,0.13,9.91,-0.9,0.53,0.19,-0.06,-0.04,-0.22,6558,2019-03-25 16:52:22:836
-0.26,0.31,8.43,-0.95,0.83,-0.53,-0.02,-0.04,-0.25,6566,2019-03-25 16:52:22:844
-0.26,0.31,8.43,-0.95,0.83,-0.53,-0.02,-0.04,-0.25,6568,2019-03-25 16:52:22:846
-0.26,0.31,8.43,-0.95,0.83,-0.53,-0.02,-0.04,-0.25,6574,2019-03-25 16:52:22:852
-0.26,0.31,8.43,-0.95,0.83,-0.53,-0.02,-0.04,-0.25,6579,2019-03-25 16:52:22:857
-0.26,0.31,8.43,-0.95,0.83,-0.53,-0.02,-0.04,-0.25,6583,2019-03-25 16:52:22:861
1.35,1.29,13.37,0.66,1.73,3.78,-0.27,-0.09,-0.24,6588,2019-03-25 16:52:22:866
1.35,1.29,13.37,0.66,1.73,3.78,-0.27,-0.09,-0.24,6594,2019-03-25 16:52:22:872
1.35,1.29,13.37,0.66,1.73,3.78,-0.27,-0.09,-0.24,6599,2019-03-25 16:52:22:877
1.98,-1.25,5.6,1.25,-0.74,-3.45,-0.08,0.0,-0.3,6604,2019-03-25 16:52:22:882
1.98,-1.25,5.6,1.25,-0.74,-3.45,-0.08,0.0,-0.3,6611,2019-03-25 16:52:22:889
1.98,-1.25,5.6,1.25,-0.74,-3.45,-0.08,0.0,-0.3,6613,2019-03-25 16:52:22:891
1.98,-1.25,5.6,1.25,-0.74,-3.45,-0.08,0.0,-0.3,6618,2019-03-25 16:52:22:896
1.16,0.02,11.78,0.53,0.42,2.07,-0.16,-0.06,-0.29,6624,2019-03-25 16:52:22:902
1.16,0.02,11.78,0.53,0.42,2.07,-0.16,-0.06,-0.29,6631,2019-03-25 16:52:22:909
1.16,0.02,11.78,0.53,0.42,2.07,-0.16,-0.06,-0.29,6635,2019-03-25 16:52:22:913
1.16,0.02,11.78,0.53,0.42,2.07,-0.16,-0.06,-0.29,6638,2019-03-25 16:52:22:916
1.65,-2.49,5.44,0.93,-1.94,-4.2,-0.11,0.02,-0.26,6643,2019-03-25 16:52:22:921
1.65,-2.49,5.44,0.93,-1.94,-4.2,-0.11,0.02,-0.26,6648,2019-03-25 16:52:22:926
1.65,-2.49,5.44,0.93,-1.94,-4.2,-0.11,0.02,-0.26,6653,2019-03-25 16:52:22:931
1.65,-2.49,5.44,0.93,-1.94,-4.2,-0.11,0.02,-0.26,6658,2019-03-25 16:52:22:936
0.65,0.04,10.87,-0.05,0.45,1.02,-0.09,-0.03,-0.26,6664,2019-03-25 16:52:22:942
0.65,0.04,10.87,-0.05,0.45,1.02,-0.09,-0.03,-0.26,6667,2019-03-25 16:52:22:945
0.65,0.04,10.87,-0.05,0.45,1.02,-0.09,-0.03,-0.26,6673,2019-03-25 16:52:22:951
0.65,0.04,10.87,-0.05,0.45,1.02,-0.09,-0.03,-0.26,6678,2019-03-25 16:52:22:956
1.2,-0.21,8.83,0.62,0.26,-1.04,-0.15,-0.02,-0.22,6683,2019-03-25 16:52:22:961
1.2,-0.21,8.83,0.62,0.26,-1.04,-0.15,-0.02,-0.22,6688,2019-03-25 16:52:22:966
1.2,-0.21,8.83,0.62,0.26,-1.04,-0.15,-0.02,-0.22,6693,2019-03-25 16:52:22:971
1.2,-0.21,8.83,0.62,0.26,-1.04,-0.15,-0.02,-0.22,6698,2019-03-25 16:52:22:976
1.95,-0.05,11.87,1.15,0.31,1.47,-0.1,-0.02,-0.22,6703,2019-03-25 16:52:22:981
1.95,-0.05,11.87,1.15,0.31,1.47,-0.1,-0.02,-0.22,6708,2019-03-25 16:52:22:986
1.95,-0.05,11.87,1.15,0.31,1.47,-0.1,-0.02,-0.22,6713,2019-03-25 16:52:22:991
1.95,-0.05,11.87,1.15,0.31,1.47,-0.1,-0.02,-0.22,6718,2019-03-25 16:52:22:996
0.62,-2.06,11.25,0.07,-1.66,0.67,-0.04,0.0,-0.21,6723,2019-03-25 16:52:23:001
0.62,-2.06,11.25,0.07,-1.66,0.67,-0.04,0.0,-0.21,6728,2019-03-25 16:52:23:006
0.62,-2.06,11.25,0.07,-1.66,0.67,-0.04,0.0,-0.21,6733,2019-03-25 16:52:23:011
0.62,-2.06,11.25,0.07,-1.66,0.67,-0.04,0.0,-0.21,6738,2019-03-25 16:52:23:016
0.62,-2.06,11.25,0.07,-1.66,0.67,-0.04,0.0,-0.21,6743,2019-03-25 16:52:23:021
-2.65,-3.06,8.5,-2.95,-2.31,-1.79,0.05,0.02,-0.13,6748,2019-03-25 16:52:23:026
-2.65,-3.06,8.5,-2.95,-2.31,-1.79,0.05,0.02,-0.13,6753,2019-03-25 16:52:23:031
-2.65,-3.06,8.5,-2.95,-2.31,-1.79,0.05,0.02,-0.13,6758,2019-03-25 16:52:23:036
-2.65,-3.06,8.5,-2.95,-2.31,-1.79,0.05,0.02,-0.13,6763,2019-03-25 16:52:23:041
0.71,1.29,8.67,0.42,1.95,-2.08,-0.07,-0.06,0.08,6768,2019-03-25 16:52:23:046
0.71,1.29,8.67,0.42,1.95,-2.08,-0.07,-0.06,0.08,6773,2019-03-25 16:52:23:051
0.71,1.29,8.67,0.42,1.95,-2.08,-0.07,-0.06,0.08,6778,2019-03-25 16:52:23:056
0.71,1.29,8.67,0.42,1.95,-2.08,-0.07,-0.06,0.08,6783,2019-03-25 16:52:23:061
1.4,2.11,11.59,0.99,2.7,1.2,-0.02,0.01,0.03,6789,2019-03-25 16:52:23:067
1.4,2.11,11.59,0.99,2.7,1.2,-0.02,0.01,0.03,6792,2019-03-25 16:52:23:070
-0.51,-0.49,7.03,-0.7,-0.01,-3.38,-0.01,-0.08,-0.07,6798,2019-03-25 16:52:23:076
-0.51,-0.49,7.03,-0.7,-0.01,-3.38,-0.01,-0.08,-0.07,6803,2019-03-25 16:52:23:081
-0.51,-0.49,7.03,-0.7,-0.01,-3.38,-0.01,-0.08,-0.07,6808,2019-03-25 16:52:23:086
-0.51,-0.49,7.03,-0.7,-0.01,-3.38,-0.01,-0.08,-0.07,6813,2019-03-25 16:52:23:091
0.0,2.05,11.16,-0.7,-0.01,-3.38,-0.01,-0.04,-0.08,6819,2019-03-25 16:52:23:097
0.0,2.05,11.16,-0.15,2.37,1.03,-0.01,-0.04,-0.08,6823,2019-03-25 16:52:23:101
0.0,2.05,11.16,-0.15,2.37,1.03,-0.01,-0.04,-0.08,6828,2019-03-25 16:52:23:106
0.0,2.05,11.16,-0.15,2.37,1.03,-0.01,-0.04,-0.08,6833,2019-03-25 16:52:23:111
1.99,2.0,12.92,1.77,1.95,2.5,-0.07,-0.06,-0.08,6838,2019-03-25 16:52:23:116
1.99,2.0,12.92,1.77,1.95,2.5,-0.07,-0.06,-0.08,6843,2019-03-25 16:52:23:121
1.99,2.0,12.92,1.77,1.95,2.5,0.02,-0.08,-0.11,6848,2019-03-25 16:52:23:126
1.99,2.0,12.92,1.77,1.95,2.5,0.02,-0.08,-0.11,6853,2019-03-25 16:52:23:131
1.56,1.2,14.86,1.28,0.85,4.23,0.02,-0.08,-0.11,6858,2019-03-25 16:52:23:136
1.56,1.2,14.86,1.28,0.85,4.23,0.02,-0.03,-0.06,6864,2019-03-25 16:52:23:142
1.56,1.2,14.86,1.28,0.85,4.23,0.02,-0.03,-0.06,6868,2019-03-25 16:52:23:146
1.56,1.2,14.86,1.28,0.85,4.23,0.02,-0.03,-0.06,6873,2019-03-25 16:52:23:151
1.56,1.2,14.86,1.28,0.85,4.23,0.02,-0.03,-0.06,6878,2019-03-25 16:52:23:156
1.56,1.95,10.27,1.28,0.85,4.23,0.02,0.02,-0.02,6883,2019-03-25 16:52:23:161
0.35,1.95,10.27,0.02,1.33,-0.53,0.04,0.02,-0.02,6890,2019-03-25 16:52:23:168
0.35,1.95,10.27,0.02,1.33,-0.53,0.04,0.02,-0.02,6894,2019-03-25 16:52:23:172
0.35,1.95,10.27,0.02,1.33,-0.53,0.21,0.02,-0.09,6899,2019-03-25 16:52:23:177
0.35,1.95,10.27,0.02,1.33,-0.53,0.21,0.02,-0.09,6903,2019-03-25 16:52:23:181
-1.65,0.53,7.36,-1.97,-0.1,-2.67,0.21,0.02,-0.09,6908,2019-03-25 16:52:23:186
-1.65,0.53,7.36,-1.97,-0.1,-2.67,0.21,0.02,-0.09,6913,2019-03-25 16:52:23:191
-1.41,-0.42,14.09,-1.61,-1.14,3.91,-0.03,0.08,0.0,6917,2019-03-25 16:52:23:195
-1.41,-0.42,14.09,-1.61,-1.14,3.91,-0.03,0.08,0.0,6923,2019-03-25 16:52:23:201
-1.41,-0.42,14.09,-1.61,-1.14,3.91,-0.03,0.08,0.0,6928,2019-03-25 16:52:23:206
-1.41,-0.42,14.09,-1.61,-1.14,3.91,-0.03,0.08,0.0,6933,2019-03-25 16:52:23:211
-1.07,-0.2,9.15,-1.34,-1.32,-0.53,0.01,0.03,0.06,6937,2019-03-25 16:52:23:215
-1.07,-0.2,9.15,-1.34,-1.32,-0.53,0.01,0.03,0.06,6944,2019-03-25 16:52:23:222
-1.07,-0.2,9.15,-1.34,-1.32,-0.53,0.01,0.03,0.06,6948,2019-03-25 16:52:23:226
-1.07,-0.2,9.15,-1.34,-1.32,-0.53,0.01,0.03,0.06,6953,2019-03-25 16:52:23:231
-0.69,1.13,13.05,-0.74,0.16,3.13,0.0,0.04,0.11,6958,2019-03-25 16:52:23:236
-0.69,1.13,13.05,-0.74,0.16,3.13,0.0,0.04,0.11,6965,2019-03-25 16:52:23:243
-0.69,1.13,13.05,-0.74,0.16,3.13,0.0,0.04,0.11,6970,2019-03-25 16:52:23:248
-0.69,1.13,13.05,-0.74,0.16,3.13,0.0,0.04,0.11,6973,2019-03-25 16:52:23:251
-0.45,3.05,11.09,-0.44,1.94,1.01,0.1,-0.05,0.08,6977,2019-03-25 16:52:23:255
-0.45,3.05,11.09,-0.44,1.94,1.01,0.1,-0.05,0.08,6984,2019-03-25 16:52:23:262
-0.45,3.05,11.09,-0.44,1.94,1.01,0.1,-0.05,0.08,6988,2019-03-25 16:52:23:266
-0.45,3.05,11.09,-0.44,1.94,1.01,0.1,-0.05,0.08,6993,2019-03-25 16:52:23:271
-1.87,2.56,6.76,-1.92,1.24,-3.32,-0.03,-0.01,0.14,6998,2019-03-25 16:52:23:276
-1.87,2.56,6.76,-1.92,1.24,-3.32,-0.03,-0.01,0.14,7003,2019-03-25 16:52:23:281
-1.87,2.56,6.76,-1.92,1.24,-3.32,-0.03,-0.01,0.14,7008,2019-03-25 16:52:23:286
-1.87,2.56,6.76,-1.92,1.24,-3.32,-0.03,-0.01,0.14,7013,2019-03-25 16:52:23:291
3.89,5.17,15.36,3.65,3.62,4.98,-0.04,0.0,0.04,7018,2019-03-25 16:52:23:296
3.89,5.17,15.36,3.65,3.62,4.98,-0.04,0.0,0.04,7023,2019-03-25 16:52:23:301
3.89,5.17,15.36,3.65,3.62,4.98,-0.04,0.0,0.04,7034,2019-03-25 16:52:23:312
0.51,0.0,8.92,3.65,3.62,4.98,-0.01,0.04,-0.14,7035,2019-03-25 16:52:23:313
0.51,0.0,8.92,0.25,-1.5,-1.21,-0.01,0.04,-0.14,7040,2019-03-25 16:52:23:318
0.51,0.0,8.92,0.25,-1.5,-1.21,-0.01,0.04,-0.14,7044,2019-03-25 16:52:23:322
0.51,0.0,8.92,0.25,-1.5,-1.21,-0.01,0.04,-0.14,7048,2019-03-25 16:52:23:326
0.51,0.0,8.92,0.25,-1.5,-1.21,-0.01,0.04,-0.14,7053,2019-03-25 16:52:23:331
0.51,0.0,8.92,0.25,-1.5,-1.21,-0.01,0.04,-0.14,7059,2019-03-25 16:52:23:337
0.51,0.0,8.92,0.25,-1.5,-1.21,-0.01,0.04,-0.14,7065,2019-03-25 16:52:23:343
0.51,0.0,8.92,0.25,-1.5,-1.21,-0.01,0.04,-0.14,7068,2019-03-25 16:52:23:346
2.47,0.48,5.88,2.17,-0.94,-3.48,0.12,-0.01,-0.39,7074,2019-03-25 16:52:23:352
2.47,0.48,5.88,2.17,-0.94,-3.48,0.12,-0.01,-0.39,7080,2019-03-25 16:52:23:358
2.47,0.48,5.88,2.17,-0.94,-3.48,0.12,-0.01,-0.39,7084,2019-03-25 16:52:23:362
2.47,0.48,5.88,2.17,-0.94,-3.48,0.12,-0.01,-0.39,7090,2019-03-25 16:52:23:368
2.47,0.48,5.88,2.17,-0.94,-3.48,0.12,-0.01,-0.39,7094,2019-03-25 16:52:23:372
2.47,0.48,5.88,2.17,-0.94,-3.48,0.12,-0.01,-0.39,7098,2019-03-25 16:52:23:376
2.47,0.48,5.88,2.17,-0.94,-3.48,0.12,-0.01,-0.39,7103,2019-03-25 16:52:23:381
1.4,2.73,14.22,0.67,1.04,4.35,0.05,0.08,-0.41,7109,2019-03-25 16:52:23:387
1.4,2.73,14.22,0.67,1.04,4.35,0.05,0.08,-0.41,7113,2019-03-25 16:52:23:391
1.4,2.73,14.22,0.67,1.04,4.35,0.05,0.08,-0.41,7118,2019-03-25 16:52:23:396
1.4,2.73,14.22,0.67,1.04,4.35,0.05,0.08,-0.41,7124,2019-03-25 16:52:23:402
1.4,2.73,14.22,0.67,1.04,4.35,0.05,0.08,-0.41,7128,2019-03-25 16:52:23:406
0.5,-0.63,9.75,-0.41,-2.4,-0.22,0.13,0.15,-0.29,7133,2019-03-25 16:52:23:411
0.5,-0.63,9.75,-0.41,-2.4,-0.22,0.13,0.15,-0.29,7139,2019-03-25 16:52:23:417
0.5,-0.63,9.75,-0.41,-2.4,-0.22,0.13,0.15,-0.29,7146,2019-03-25 16:52:23:424
0.5,-0.63,9.75,-0.41,-2.4,-0.22,0.13,0.15,-0.29,7149,2019-03-25 16:52:23:427
0.5,-0.63,9.75,-0.41,-2.4,-0.22,0.13,0.15,-0.29,7153,2019-03-25 16:52:23:431
0.5,0.84,12.19,-0.38,-1.01,1.73,0.02,0.01,-0.08,7158,2019-03-25 16:52:23:436
0.5,0.84,12.19,-0.38,-1.01,1.73,0.02,0.01,-0.08,7166,2019-03-25 16:52:23:444
0.5,0.84,12.19,-0.38,-1.01,1.73,0.02,0.01,-0.08,7168,2019-03-25 16:52:23:446
0.5,0.84,12.19,-0.38,-1.01,1.73,0.02,0.01,-0.08,7174,2019-03-25 16:52:23:452
0.5,0.84,12.19,-0.38,-1.01,1.73,0.02,0.01,-0.08,7178,2019-03-25 16:52:23:456
0.5,0.84,12.19,-0.38,-1.01,1.73,0.02,0.01,-0.08,7182,2019-03-25 16:52:23:460
0.5,0.84,12.19,-0.38,-1.01,1.73,0.02,0.01,-0.08,7188,2019-03-25 16:52:23:466
-8.34,3.39,12.63,-8.75,1.72,2.34,0.15,-0.25,-0.13,7192,2019-03-25 16:52:23:470
-8.34,3.39,12.63,-8.75,1.72,2.34,0.15,-0.25,-0.13,7198,2019-03-25 16:52:23:476
-8.34,3.39,12.63,-8.75,1.72,2.34,0.15,-0.25,-0.13,7203,2019-03-25 16:52:23:481
-8.34,3.39,12.63,-8.75,1.72,2.34,0.15,-0.25,-0.13,7208,2019-03-25 16:52:23:486
-8.34,3.39,12.63,-8.75,1.72,2.34,0.15,-0.25,-0.13,7213,2019-03-25 16:52:23:491
-8.34,3.39,12.63,-8.75,1.72,2.34,0.15,-0.25,-0.13,7218,2019-03-25 16:52:23:496
-8.34,3.39,12.63,-8.75,1.72,2.34,0.15,-0.25,-0.13,7223,2019-03-25 16:52:23:501
-8.34,3.39,12.63,-8.75,1.72,2.34,0.15,-0.25,-0.13,7228,2019-03-25 16:52:23:506
-3.29,-0.5,8.36,-3.71,-1.5,-1.58,-0.06,-0.03,0.21,7233,2019-03-25 16:52:23:511
-3.29,-0.5,8.36,-3.71,-1.5,-1.58,-0.06,-0.03,0.21,7238,2019-03-25 16:52:23:516
-3.29,-0.5,8.36,-3.71,-1.5,-1.58,-0.06,-0.03,0.21,7243,2019-03-25 16:52:23:521
-3.29,-0.5,8.36,-3.71,-1.5,-1.58,-0.06,-0.03,0.21,7249,2019-03-25 16:52:23:527
-3.29,-0.5,8.36,-3.71,-1.5,-1.58,-0.06,-0.03,0.21,7253,2019-03-25 16:52:23:531
-3.29,-0.5,8.36,-3.71,-1.5,-1.58,-0.06,-0.03,0.21,7258,2019-03-25 16:52:23:536
-3.29,-0.5,8.36,-3.71,-1.5,-1.58,-0.06,-0.03,0.21,7263,2019-03-25 16:52:23:541
-3.29,-0.5,8.36,-3.71,-1.5,-1.58,-0.06,-0.03,0.21,7268,2019-03-25 16:52:23:546
-0.12,-1.33,6.74,-0.36,-2.01,-3.8,0.08,0.12,0.34,7273,2019-03-25 16:52:23:551
-0.12,-1.33,6.74,-0.36,-2.01,-3.8,0.08,0.12,0.34,7278,2019-03-25 16:52:23:556
-0.12,-1.33,6.74,-0.36,-2.01,-3.8,0.08,0.12,0.34,7283,2019-03-25 16:52:23:561
-0.12,-1.33,6.74,-0.36,-2.01,-3.8,0.08,0.12,0.34,7289,2019-03-25 16:52:23:567
-0.12,-1.33,6.74,-0.36,-2.01,-3.8,0.08,0.12,0.34,7293,2019-03-25 16:52:23:571
1.65,1.79,6.04,1.91,1.38,-3.88,-0.08,0.08,0.31,7299,2019-03-25 16:52:23:577
1.65,1.79,6.04,1.91,1.38,-3.88,-0.08,0.08,0.31,7303,2019-03-25 16:52:23:581
1.65,1.79,6.04,1.91,1.38,-3.88,-0.08,0.08,0.31,7309,2019-03-25 16:52:23:587
1.65,1.79,6.04,1.91,1.38,-3.88,-0.08,0.08,0.31,7313,2019-03-25 16:52:23:591
0.98,1.33,12.78,1.37,1.02,2.75,-0.24,0.05,0.23,7319,2019-03-25 16:52:23:597
0.98,1.33,12.78,1.37,1.02,2.75,-0.24,0.05,0.23,7323,2019-03-25 16:52:23:601
0.98,1.33,12.78,1.37,1.02,2.75,-0.24,0.05,0.23,7328,2019-03-25 16:52:23:606
0.98,1.33,12.78,1.37,1.02,2.75,-0.24,0.05,0.23,7334,2019-03-25 16:52:23:612
2.71,0.48,7.91,2.66,0.09,-2.3,0.06,0.16,0.14,7340,2019-03-25 16:52:23:618
2.71,0.48,7.91,2.66,0.09,-2.3,0.06,0.16,0.14,7343,2019-03-25 16:52:23:621
2.71,0.48,7.91,2.66,0.09,-2.3,0.06,0.16,0.14,7349,2019-03-25 16:52:23:627
2.71,0.48,7.91,2.66,0.09,-2.3,0.06,0.16,0.14,7353,2019-03-25 16:52:23:631
0.0,0.43,9.26,-0.05,0.09,-0.31,-0.08,0.0,0.16,7358,2019-03-25 16:52:23:636
0.0,0.43,9.26,-0.05,0.09,-0.31,-0.08,0.0,0.16,7363,2019-03-25 16:52:23:641
0.0,0.43,9.26,-0.05,0.09,-0.31,-0.08,0.0,0.16,7368,2019-03-25 16:52:23:646
1.35,-0.89,8.97,0.48,-1.04,-0.33,-0.08,-0.08,0.12,7378,2019-03-25 16:52:23:656
1.35,-0.89,8.97,0.48,-1.04,-0.33,-0.08,-0.08,0.12,7379,2019-03-25 16:52:23:657
1.35,-0.89,8.97,0.48,-1.04,-0.33,-0.08,-0.08,0.12,7383,2019-03-25 16:52:23:661
1.35,-0.89,8.97,0.48,-1.04,-0.33,-0.08,-0.08,0.12,7388,2019-03-25 16:52:23:666
1.35,-0.89,8.97,0.48,-1.04,-0.33,-0.08,-0.08,0.12,7395,2019-03-25 16:52:23:673
-0.79,3.07,13.24,-1.37,2.74,3.64,-0.22,-0.17,-0.03,7398,2019-03-25 16:52:23:676
-0.79,3.07,13.24,-1.37,2.74,3.64,-0.22,-0.17,-0.03,7402,2019-03-25 16:52:23:680
-0.79,3.07,13.24,-1.37,2.74,3.64,-0.22,-0.17,-0.03,7408,2019-03-25 16:52:23:686
-0.79,3.07,13.24,-1.37,2.74,3.64,-0.22,-0.17,-0.03,7413,2019-03-25 16:52:23:691
1.94,0.2,7.19,1.3,-0.23,-2.37,-0.03,-0.02,-0.22,7418,2019-03-25 16:52:23:696
1.94,0.2,7.19,1.3,-0.23,-2.37,-0.03,-0.02,-0.22,7424,2019-03-25 16:52:23:702
1.94,0.2,7.19,1.3,-0.23,-2.37,-0.03,-0.02,-0.22,7428,2019-03-25 16:52:23:706
1.94,0.2,7.19,1.3,-0.23,-2.37,-0.03,-0.02,-0.22,7433,2019-03-25 16:52:23:711
1.94,0.2,7.19,1.3,-0.23,-2.37,-0.03,-0.02,-0.22,7438,2019-03-25 16:52:23:716
1.94,0.2,7.19,1.3,-0.23,-2.37,-0.03,-0.02,-0.22,7443,2019-03-25 16:52:23:721
0.21,-2.07,11.3,-0.57,-2.5,1.99,-0.15,-0.07,-0.26,7448,2019-03-25 16:52:23:726
0.21,-2.07,11.3,-0.57,-2.5,1.99,-0.15,-0.07,-0.26,7453,2019-03-25 16:52:23:731
0.9,-3.7,4.37,-0.21,-4.05,-5.01,0.17,0.06,-0.27,7459,2019-03-25 16:52:23:737
0.9,-3.7,4.37,-0.21,-4.05,-5.01,0.17,0.06,-0.27,7463,2019-03-25 16:52:23:741
0.9,-3.7,4.37,-0.21,-4.05,-5.01,0.17,0.06,-0.27,7469,2019-03-25 16:52:23:747
0.9,-3.7,4.37,-0.21,-4.05,-5.01,0.17,0.06,-0.27,7474,2019-03-25 16:52:23:752
-2.44,-0.93,5.81,-3.5,-1.18,-3.33,-0.04,-0.09,-0.16,7478,2019-03-25 16:52:23:756
-2.44,-0.93,5.81,-3.5,-1.18,-3.33,-0.04,-0.09,-0.16,7483,2019-03-25 16:52:23:761
-2.44,-0.93,5.81,-3.5,-1.18,-3.33,-0.04,-0.09,-0.16,7488,2019-03-25 16:52:23:766
-2.44,-0.93,5.81,-3.5,-1.18,-3.33,-0.04,-0.09,-0.16,7494,2019-03-25 16:52:23:772
-2.44,-0.93,5.81,-3.5,-1.18,-3.33,-0.04,-0.09,-0.16,7499,2019-03-25 16:52:23:777
0.92,-0.03,10.37,-0.14,-0.11,0.62,-0.08,0.04,-0.14,7504,2019-03-25 16:52:23:782
0.92,-0.03,10.37,-0.14,-0.11,0.62,-0.08,0.04,-0.14,7518,2019-03-25 16:52:23:796
0.92,-0.03,10.37,-0.14,-0.11,0.62,-0.08,0.04,-0.14,7519,2019-03-25 16:52:23:797
0.92,-0.03,10.37,-0.14,-0.11,0.62,-0.08,0.04,-0.14,7519,2019-03-25 16:52:23:797
0.92,-0.03,10.37,-0.14,-0.11,0.62,-0.08,0.04,-0.14,7522,2019-03-25 16:52:23:800
0.92,-0.03,10.37,-0.14,-0.11,0.62,-0.08,0.04,-0.14,7528,2019-03-25 16:52:23:806
0.92,-0.03,10.37,-0.14,-0.11,0.62,-0.08,0.04,-0.14,7533,2019-03-25 16:52:23:811
0.92,-0.03,10.37,-0.14,-0.11,0.62,-0.08,0.04,-0.14,7537,2019-03-25 16:52:23:815
-0.34,-1.44,10.63,-1.47,-1.45,0.97,0.01,-0.05,-0.18,7555,2019-03-25 16:52:23:833
-0.34,-1.44,10.63,-1.47,-1.45,0.97,0.01,-0.05,-0.18,7555,2019-03-25 16:52:23:833
-0.34,-1.44,10.63,-1.47,-1.45,0.97,0.01,-0.05,-0.18,7556,2019-03-25 16:52:23:834
-0.34,-1.44,10.63,-1.47,-1.45,0.97,0.01,-0.05,-0.18,7558,2019-03-25 16:52:23:836
-0.34,1.95,12.09,-1.47,-1.45,0.97,0.01,-0.05,-0.18,7563,2019-03-25 16:52:23:841
-0.77,1.95,12.09,-1.58,1.95,2.5,0.07,-0.07,-0.28,7569,2019-03-25 16:52:23:847
-0.77,1.95,12.09,-1.58,1.95,2.5,0.07,-0.07,-0.28,7574,2019-03-25 16:52:23:852
-0.77,1.95,12.09,0.0,0.51,1.89,0.07,-0.07,-0.28,7579,2019-03-25 16:52:23:857
-0.77,1.95,12.09,0.0,0.51,1.89,0.07,-0.07,-0.28,7583,2019-03-25 16:52:23:861
0.67,-2.17,6.62,0.0,0.51,1.89,-0.02,0.0,-0.05,7588,2019-03-25 16:52:23:866
0.67,-2.17,6.62,-0.97,-3.1,-2.8,-0.02,0.0,-0.05,7593,2019-03-25 16:52:23:871
0.67,-2.17,6.62,-0.97,-3.1,-2.8,-0.13,-0.02,0.11,7598,2019-03-25 16:52:23:876
0.67,-2.17,6.62,-0.97,-3.1,-2.8,-0.13,-0.02,0.11,7603,2019-03-25 16:52:23:881
0.67,-2.17,6.62,-0.97,-3.1,-2.8,-0.13,-0.02,0.11,7613,2019-03-25 16:52:23:891
0.67,-2.17,6.62,-0.97,-3.1,-2.8,-0.13,-0.02,0.11,7614,2019-03-25 16:52:23:892
-0.17,-1.69,10.02,-0.65,-1.11,-0.11,0.2,0.09,0.14,7618,2019-03-25 16:52:23:896
-0.17,-1.69,10.02,-0.65,-1.11,-0.11,0.2,0.09,0.14,7623,2019-03-25 16:52:23:901
-0.17,-1.69,10.02,-0.65,-1.11,-0.11,0.2,0.09,0.14,7628,2019-03-25 16:52:23:906
-0.17,-1.69,10.02,-0.65,-1.11,-0.11,0.2,0.09,0.14,7633,2019-03-25 16:52:23:911
-4.38,-0.19,9.8,-4.31,0.35,-0.19,0.05,0.01,0.32,7638,2019-03-25 16:52:23:916
-4.38,-0.19,9.8,-4.31,0.35,-0.19,0.05,0.01,0.32,7645,2019-03-25 16:52:23:923
-4.38,-0.19,9.8,-4.31,0.35,-0.19,0.05,0.01,0.32,7648,2019-03-25 16:52:23:926
-4.38,-0.19,9.8,-4.31,0.35,-0.19,0.05,0.01,0.32,7653,2019-03-25 16:52:23:931
-4.38,-0.19,9.8,-4.31,0.35,-0.19,0.05,0.01,0.32,7660,2019-03-25 16:52:23:938
-4.81,0.47,10.23,-4.05,0.96,0.31,0.1,0.06,0.39,7663,2019-03-25 16:52:23:941
-4.81,0.47,10.23,-4.05,0.96,0.31,0.1,0.06,0.39,7668,2019-03-25 16:52:23:946
-4.81,0.47,10.23,-4.05,0.96,0.31,0.1,0.06,0.39,7674,2019-03-25 16:52:23:952
-4.81,0.47,10.23,-4.05,0.96,0.31,0.1,0.06,0.39,7678,2019-03-25 16:52:23:956
-4.81,0.47,10.23,-4.05,0.96,0.31,0.1,0.06,0.39,7684,2019-03-25 16:52:23:962
2.75,-1.14,8.5,3.35,-0.87,-2.02,0.18,0.16,0.48,7688,2019-03-25 16:52:23:966
2.75,-1.14,8.5,3.35,-0.87,-2.02,0.18,0.16,0.48,7693,2019-03-25 16:52:23:971
1.42,0.52,10.05,3.35,-0.87,-2.02,0.05,0.04,0.59,7698,2019-03-25 16:52:23:976
1.42,0.52,10.05,0.69,1.83,-2.14,0.05,0.04,0.59,7704,2019-03-25 16:52:23:982
1.42,0.52,10.05,0.69,1.83,-2.14,0.05,0.04,0.59,7709,2019-03-25 16:52:23:987
1.42,0.52,10.05,0.69,1.83,-2.14,0.05,0.04,0.59,7712,2019-03-25 16:52:23:990
1.42,0.52,10.05,0.69,1.83,-2.14,0.05,0.04,0.59,7718,2019-03-25 16:52:23:996
1.42,0.52,10.05,0.69,1.83,-2.14,0.05,0.04,0.59,7724,2019-03-25 16:52:24:002
4.9,3.76,10.3,5.34,3.68,0.35,0.03,0.12,0.56,7729,2019-03-25 16:52:24:007
4.9,3.76,10.3,5.34,3.68,0.35,0.03,0.12,0.56,7734,2019-03-25 16:52:24:012
4.9,3.76,10.3,5.34,3.68,0.35,0.03,0.12,0.56,7738,2019-03-25 16:52:24:016
3.02,3.13,7.06,3.14,2.85,-2.7,0.14,-0.08,0.35,7744,2019-03-25 16:52:24:022
3.02,3.13,7.06,3.14,2.85,-2.7,0.14,-0.08,0.35,7748,2019-03-25 16:52:24:026
3.02,3.13,7.06,3.14,2.85,-2.7,0.14,-0.08,0.35,7753,2019-03-25 16:52:24:031
3.02,3.13,7.06,3.14,2.85,-2.7,0.14,-0.08,0.35,7758,2019-03-25 16:52:24:036
2.0,3.26,8.11,1.84,2.61,-1.53,0.03,-0.02,0.1,7764,2019-03-25 16:52:24:042
2.0,3.26,8.11,1.84,2.61,-1.53,0.03,-0.02,0.1,7768,2019-03-25 16:52:24:046
2.0,3.26,8.11,1.84,2.61,-1.53,0.03,-0.02,0.1,7773,2019-03-25 16:52:24:051
2.0,3.26,8.11,1.84,2.61,-1.53,0.03,-0.02,0.1,7782,2019-03-25 16:52:24:060
2.0,3.26,8.11,1.84,2.61,-1.53,0.03,-0.02,0.1,7783,2019-03-25 16:52:24:061
4.13,4.05,10.48,3.61,2.91,0.66,-0.06,-0.06,-0.21,7788,2019-03-25 16:52:24:066
4.13,4.05,10.48,3.61,2.91,0.66,-0.06,-0.06,-0.21,7794,2019-03-25 16:52:24:072
3.51,2.7,0.7,2.66,1.16,-8.41,0.02,-0.02,-0.56,7798,2019-03-25 16:52:24:076
3.51,2.7,0.7,2.66,1.16,-8.41,0.02,-0.02,-0.56,7803,2019-03-25 16:52:24:081
3.51,2.7,0.7,2.66,1.16,-8.41,0.02,-0.02,-0.56,7809,2019-03-25 16:52:24:087
3.51,2.7,0.7,2.66,1.16,-8.41,0.02,-0.02,-0.56,7812,2019-03-25 16:52:24:090
3.51,2.7,0.7,2.66,1.16,-8.41,0.02,-0.02,-0.56,7818,2019-03-25 16:52:24:096
4.33,4.38,21.6,3.11,2.51,11.92,-0.23,-0.15,-0.72,7823,2019-03-25 16:52:24:101
4.33,4.38,21.6,3.11,2.51,11.92,-0.23,-0.15,-0.72,7829,2019-03-25 16:52:24:107
4.33,4.38,21.6,3.11,2.51,11.92,-0.23,-0.15,-0.72,7833,2019-03-25 16:52:24:111
