ACCELEROMETER X (m/s²),ACCELEROMETER Y (m/s²),ACCELEROMETER Z (m/s²),LINEAR ACCELERATION X (m/s²),LINEAR ACCELERATION Y (m/s²),LINEAR ACCELERATION Z (m/s²),GYROSCOPE X (rad/s),GYROSCOPE Y (rad/s),GYROSCOPE Z (rad/s),Time since start in ms ,YYYY-MO-DD HH-MI-SS_SSS
0.52,0.63,9.78,0.01,0.2,-0.14,0.0,0.0,0.0,4,2019-03-25 16:59:35:820
0.52,0.63,9.78,0.01,0.2,-0.14,0.0,0.0,0.0,9,2019-03-25 16:59:35:825
0.52,0.63,9.78,0.01,0.2,-0.14,0.0,0.0,0.0,14,2019-03-25 16:59:35:830
0.52,0.63,9.78,0.01,0.2,-0.14,0.0,0.0,0.0,19,2019-03-25 16:59:35:835
0.42,0.66,9.98,-0.07,0.21,0.05,0.0,0.0,0.01,24,2019-03-25 16:59:35:840
0.42,0.66,9.98,-0.07,0.21,0.05,0.0,0.0,0.01,29,2019-03-25 16:59:35:845
0.42,0.66,9.98,-0.07,0.21,0.05,0.0,0.0,0.01,34,2019-03-25 16:59:35:850
0.42,0.66,9.98,-0.07,0.21,0.05,0.0,0.0,0.01,39,2019-03-25 16:59:35:855
0.46,0.59,9.89,-0.03,0.11,-0.04,0.0,0.0,0.02,44,2019-03-25 16:59:35:860
0.46,0.59,9.89,-0.03,0.11,-0.04,0.0,0.0,0.02,50,2019-03-25 16:59:35:866
0.46,0.59,9.89,-0.03,0.11,-0.04,0.0,0.0,0.02,54,2019-03-25 16:59:35:870
0.46,0.59,9.89,-0.03,0.11,-0.04,0.0,0.0,0.02,59,2019-03-25 16:59:35:875
0.59,0.5,9.85,0.09,0.0,-0.07,0.0,0.0,0.02,64,2019-03-25 16:59:35:880
0.59,0.5,9.85,0.09,0.0,-0.07,0.0,0.0,0.02,70,2019-03-25 16:59:35:886
0.59,0.5,9.85,0.09,0.0,-0.07,0.0,0.0,0.02,74,2019-03-25 16:59:35:890
0.59,0.5,9.85,0.09,0.0,-0.07,0.0,0.0,0.02,79,2019-03-25 16:59:35:895
0.78,0.25,9.82,0.23,-0.24,-0.08,0.0,0.0,0.01,84,2019-03-25 16:59:35:900
0.78,0.25,9.82,0.23,-0.24,-0.08,0.0,0.0,0.01,89,2019-03-25 16:59:35:905
0.78,0.25,9.82,0.23,-0.24,-0.08,0.0,0.0,0.01,94,2019-03-25 16:59:35:910
0.78,0.25,9.82,0.23,-0.24,-0.08,0.0,0.0,0.01,99,2019-03-25 16:59:35:915
0.78,0.25,9.82,0.23,-0.24,-0.08,0.0,0.0,0.01,104,2019-03-25 16:59:35:920
0.96,0.4,9.78,0.37,-0.09,-0.12,0.0,0.0,0.0,109,2019-03-25 16:59:35:925
0.96,0.4,9.78,0.37,-0.09,-0.12,0.0,0.0,0.0,114,2019-03-25 16:59:35:930
0.96,0.4,9.78,0.37,-0.09,-0.12,0.0,0.0,0.0,119,2019-03-25 16:59:35:935
0.24,0.57,9.89,-0.31,0.06,-0.04,0.0,0.0,0.01,124,2019-03-25 16:59:35:940
0.24,0.57,9.89,-0.31,0.06,-0.04,0.0,0.0,0.01,129,2019-03-25 16:59:35:945
0.24,0.57,9.89,-0.31,0.06,-0.04,0.0,0.0,0.01,134,2019-03-25 16:59:35:950
0.24,0.57,9.89,-0.31,0.06,-0.04,0.0,0.0,0.01,139,2019-03-25 16:59:35:955
0.24,0.57,9.89,-0.31,0.06,-0.04,0.0,0.0,0.01,144,2019-03-25 16:59:35:960
0.2,0.52,9.92,-0.32,0.0,-0.01,0.0,0.0,0.03,149,2019-03-25 16:59:35:965
0.2,0.52,9.92,-0.32,0.0,-0.01,0.0,0.0,0.03,154,2019-03-25 16:59:35:970
0.2,0.52,9.92,-0.32,0.0,-0.01,0.0,0.0,0.03,159,2019-03-25 16:59:35:975
0.39,0.37,9.94,-0.11,-0.14,0.0,0.0,0.0,0.04,164,2019-03-25 16:59:35:980
0.39,0.37,9.94,-0.11,-0.14,0.0,0.0,0.0,0.04,169,2019-03-25 16:59:35:985
0.39,0.37,9.94,-0.11,-0.14,0.0,0.0,0.0,0.04,174,2019-03-25 16:59:35:990
0.58,0.57,10.05,-0.11,-0.14,0.0,0.0,0.0,0.06,180,2019-03-25 16:59:35:996
0.58,0.57,10.05,-0.11,-0.14,0.0,0.0,0.0,0.06,184,2019-03-25 16:59:36:000
0.58,0.57,10.05,0.06,0.05,0.11,0.0,0.0,0.06,189,2019-03-25 16:59:36:005
0.58,0.57,10.05,0.06,0.05,0.11,0.0,0.0,0.06,194,2019-03-25 16:59:36:010
0.33,1.21,9.83,-0.16,0.64,-0.1,0.0,0.01,0.05,199,2019-03-25 16:59:36:015
0.33,1.21,9.83,-0.16,0.64,-0.1,0.0,0.01,0.05,204,2019-03-25 16:59:36:020
0.33,1.21,9.83,-0.16,0.64,-0.1,0.0,0.01,0.05,209,2019-03-25 16:59:36:025
0.33,1.21,9.83,-0.16,0.64,-0.1,0.0,0.01,0.05,214,2019-03-25 16:59:36:030
0.57,1.11,9.71,-0.16,0.64,-0.1,0.0,0.0,0.02,219,2019-03-25 16:59:36:035
0.57,1.11,9.71,0.06,0.5,-0.2,0.0,0.0,0.02,224,2019-03-25 16:59:36:040
0.57,1.11,9.71,0.06,0.5,-0.2,0.0,-0.01,0.01,229,2019-03-25 16:59:36:045
0.57,1.11,9.71,0.06,0.5,-0.2,0.0,-0.01,0.01,234,2019-03-25 16:59:36:050
0.83,0.81,9.97,0.06,0.5,-0.2,0.0,0.0,0.0,239,2019-03-25 16:59:36:055
0.83,0.81,9.97,0.28,0.17,0.05,0.0,0.0,0.0,244,2019-03-25 16:59:36:060
0.83,0.81,9.97,0.28,0.17,0.05,0.0,0.0,0.0,250,2019-03-25 16:59:36:066
0.83,0.81,9.97,0.28,0.17,0.05,0.0,0.0,0.0,254,2019-03-25 16:59:36:070
0.67,0.68,9.93,0.1,0.02,0.0,0.0,0.0,0.0,259,2019-03-25 16:59:36:075
0.67,0.68,9.93,0.1,0.02,0.0,0.0,0.0,0.0,264,2019-03-25 16:59:36:080
0.67,0.68,9.93,0.1,0.02,0.0,0.0,0.0,0.0,269,2019-03-25 16:59:36:085
0.67,0.68,9.93,0.1,0.02,0.0,0.0,0.0,0.0,274,2019-03-25 16:59:36:090
0.76,0.69,9.86,0.19,0.0,-0.06,0.0,0.0,0.0,279,2019-03-25 16:59:36:095
0.76,0.69,9.86,0.19,0.0,-0.06,0.0,0.0,0.0,284,2019-03-25 16:59:36:100
0.76,0.69,9.86,0.19,0.0,-0.06,0.0,0.0,0.0,289,2019-03-25 16:59:36:105
0.76,0.69,9.86,0.19,0.0,-0.06,0.0,0.0,0.0,293,2019-03-25 16:59:36:109
0.33,0.72,9.76,-0.21,0.0,-0.16,0.0,0.0,0.0,299,2019-03-25 16:59:36:115
0.33,0.72,9.76,-0.21,0.0,-0.16,0.0,0.0,0.0,303,2019-03-25 16:59:36:119
0.33,0.72,9.76,-0.21,0.0,-0.16,0.0,0.0,0.0,309,2019-03-25 16:59:36:125
0.33,0.72,9.76,-0.21,0.0,-0.16,0.0,0.0,0.0,314,2019-03-25 16:59:36:130
0.18,0.63,9.87,-0.35,-0.07,-0.03,0.0,0.0,-0.01,319,2019-03-25 16:59:36:135
0.18,0.63,9.87,-0.35,-0.07,-0.03,0.0,0.0,-0.01,324,2019-03-25 16:59:36:140
0.18,0.63,9.87,-0.35,-0.07,-0.03,0.0,0.0,-0.01,329,2019-03-25 16:59:36:145
0.18,0.63,9.87,-0.35,-0.07,-0.03,0.0,0.0,-0.01,334,2019-03-25 16:59:36:150
0.85,0.59,10.04,-0.35,-0.07,0.12,0.0,-0.01,-0.04,339,2019-03-25 16:59:36:155
0.85,0.59,10.04,0.25,-0.12,0.12,0.0,-0.01,-0.04,344,2019-03-25 16:59:36:160
0.85,0.59,10.04,0.25,-0.12,0.12,0.0,-0.01,-0.04,349,2019-03-25 16:59:36:165
0.85,0.59,10.04,0.25,-0.12,0.12,0.0,-0.01,-0.04,354,2019-03-25 16:59:36:170
1.12,0.41,9.98,0.45,-0.3,0.07,0.0,-0.01,-0.05,359,2019-03-25 16:59:36:175
1.12,0.41,9.98,0.45,-0.3,0.07,0.0,-0.01,-0.05,364,2019-03-25 16:59:36:180
1.12,0.41,9.98,0.45,-0.3,0.07,0.0,-0.01,-0.05,369,2019-03-25 16:59:36:185
1.12,0.41,9.98,0.45,-0.3,0.07,0.0,-0.01,-0.05,374,2019-03-25 16:59:36:190
0.77,0.36,10.02,0.07,-0.34,0.11,0.0,0.0,-0.04,379,2019-03-25 16:59:36:195
0.77,0.36,10.02,0.07,-0.34,0.11,0.0,0.0,-0.04,384,2019-03-25 16:59:36:200
0.77,0.36,10.02,0.07,-0.34,0.11,0.0,0.0,-0.04,389,2019-03-25 16:59:36:205
0.77,0.36,10.02,0.07,-0.34,0.11,0.0,0.0,-0.04,394,2019-03-25 16:59:36:210
0.24,0.03,9.98,-0.45,-0.57,0.06,0.01,0.01,-0.01,399,2019-03-25 16:59:36:215
0.24,0.03,9.98,-0.45,-0.57,0.06,0.01,0.01,-0.01,404,2019-03-25 16:59:36:220
0.24,0.03,9.98,-0.45,-0.57,0.06,0.01,0.01,-0.01,409,2019-03-25 16:59:36:225
0.24,0.03,9.98,-0.45,-0.57,0.06,0.01,0.01,-0.01,414,2019-03-25 16:59:36:230
0.2,-0.06,10.04,-0.45,-0.54,0.09,0.01,0.01,0.01,419,2019-03-25 16:59:36:235
0.2,-0.06,10.04,-0.45,-0.54,0.09,0.01,0.01,0.01,424,2019-03-25 16:59:36:240
0.2,-0.06,10.04,-0.45,-0.54,0.09,0.01,0.01,0.01,429,2019-03-25 16:59:36:245
0.2,-0.06,10.04,-0.45,-0.54,0.09,0.01,0.01,0.01,434,2019-03-25 16:59:36:250
0.03,-0.05,9.94,-0.45,-0.54,0.09,0.01,0.02,0.04,439,2019-03-25 16:59:36:255
0.03,-0.05,9.94,-0.54,-0.44,-0.01,0.01,0.02,0.04,445,2019-03-25 16:59:36:261
0.03,-0.05,9.94,-0.54,-0.44,-0.01,0.01,0.02,0.04,448,2019-03-25 16:59:36:264
0.03,-0.05,9.94,-0.54,-0.44,-0.01,0.01,0.02,0.04,454,2019-03-25 16:59:36:270
0.47,-0.07,10.04,-0.06,-0.38,0.08,0.01,0.0,0.03,459,2019-03-25 16:59:36:275
0.47,-0.07,10.04,-0.06,-0.38,0.08,0.01,0.0,0.03,464,2019-03-25 16:59:36:280
0.47,-0.07,10.04,-0.06,-0.38,0.08,0.01,0.0,0.03,470,2019-03-25 16:59:36:286
0.47,-0.07,10.04,-0.06,-0.38,0.08,0.01,0.0,0.03,474,2019-03-25 16:59:36:290
0.72,-0.04,9.95,-0.06,-0.38,0.08,0.0,0.0,0.01,478,2019-03-25 16:59:36:294
0.72,-0.04,9.95,0.19,-0.27,-0.01,0.0,0.0,0.01,484,2019-03-25 16:59:36:300
0.72,-0.04,9.95,0.19,-0.27,-0.01,0.0,0.0,0.01,489,2019-03-25 16:59:36:305
0.72,-0.04,9.95,0.19,-0.27,-0.01,0.0,0.0,0.01,494,2019-03-25 16:59:36:310
0.77,0.54,10.08,0.24,0.33,0.1,0.0,0.01,0.0,499,2019-03-25 16:59:36:315
0.77,0.54,10.08,0.24,0.33,0.1,0.0,0.01,0.0,507,2019-03-25 16:59:36:323
0.77,0.54,10.08,0.24,0.33,0.1,0.0,0.01,0.0,509,2019-03-25 16:59:36:325
0.77,0.54,10.08,0.24,0.33,0.1,0.0,0.01,0.0,514,2019-03-25 16:59:36:330
0.19,0.75,10.06,-0.3,0.52,0.08,0.0,0.03,0.0,519,2019-03-25 16:59:36:335
0.19,0.75,10.06,-0.3,0.52,0.08,0.0,0.03,0.0,524,2019-03-25 16:59:36:340
0.19,0.75,10.06,-0.3,0.52,0.08,0.0,0.03,0.0,529,2019-03-25 16:59:36:345
0.19,0.75,10.06,-0.3,0.52,0.08,0.0,0.03,0.0,534,2019-03-25 16:59:36:350
0.24,1.12,10.05,-0.18,0.84,0.06,0.01,0.03,0.02,540,2019-03-25 16:59:36:356
0.24,1.12,10.05,-0.18,0.84,0.06,0.01,0.03,0.02,544,2019-03-25 16:59:36:360
0.24,1.12,10.05,-0.18,0.84,0.06,0.01,0.03,0.02,549,2019-03-25 16:59:36:365
0.24,1.12,10.05,-0.18,0.84,0.06,0.01,0.03,0.02,554,2019-03-25 16:59:36:370
0.36,1.65,9.91,0.02,1.27,-0.07,0.01,0.04,0.04,559,2019-03-25 16:59:36:375
0.36,1.65,9.91,0.02,1.27,-0.07,0.01,0.04,0.04,564,2019-03-25 16:59:36:380
0.36,1.65,9.91,0.02,1.27,-0.07,0.01,0.04,0.04,570,2019-03-25 16:59:36:386
0.36,1.65,9.91,0.02,1.27,-0.07,0.01,0.04,0.04,575,2019-03-25 16:59:36:391
0.02,1.85,9.67,-0.23,1.32,-0.29,0.01,0.01,0.03,586,2019-03-25 16:59:36:402
0.02,1.85,9.67,-0.23,1.32,-0.29,0.01,0.01,0.03,587,2019-03-25 16:59:36:403
0.02,1.85,9.67,-0.23,1.32,-0.29,0.01,0.01,0.03,588,2019-03-25 16:59:36:404
0.02,1.85,9.67,-0.23,1.32,-0.29,0.01,0.01,0.03,595,2019-03-25 16:59:36:411
0.29,1.74,9.85,0.03,1.05,-0.1,0.0,-0.01,0.0,599,2019-03-25 16:59:36:415
0.29,1.74,9.85,0.03,1.05,-0.1,0.0,-0.01,0.0,605,2019-03-25 16:59:36:421
0.29,1.74,9.85,0.03,1.05,-0.1,0.0,-0.01,0.0,609,2019-03-25 16:59:36:425
0.29,1.74,9.85,0.03,1.05,-0.1,0.0,-0.01,0.0,614,2019-03-25 16:59:36:430
0.88,0.82,9.47,0.56,0.0,-0.45,0.0,-0.01,-0.01,620,2019-03-25 16:59:36:436
0.88,0.82,9.47,0.56,0.0,-0.45,0.0,-0.01,-0.01,625,2019-03-25 16:59:36:441
0.88,0.82,9.47,0.56,0.0,-0.45,0.0,-0.01,-0.01,630,2019-03-25 16:59:36:446
0.88,0.82,9.47,0.56,0.0,-0.45,0.0,-0.01,-0.01,635,2019-03-25 16:59:36:451
0.88,0.82,9.47,0.56,0.0,-0.45,0.0,-0.01,-0.01,639,2019-03-25 16:59:36:455
0.88,0.82,9.47,0.56,0.0,-0.45,0.0,-0.01,-0.01,644,2019-03-25 16:59:36:460
0.88,0.82,9.47,0.56,0.0,-0.45,0.0,-0.01,-0.01,649,2019-03-25 16:59:36:465
0.73,0.83,9.95,0.33,-0.06,0.02,0.0,0.0,-0.01,654,2019-03-25 16:59:36:470
0.73,0.83,9.95,0.33,-0.06,0.02,0.0,0.0,-0.01,659,2019-03-25 16:59:36:475
0.73,0.83,9.95,0.33,-0.06,0.02,0.0,0.0,-0.01,664,2019-03-25 16:59:36:480
0.73,0.83,9.95,0.33,-0.06,0.02,0.0,0.0,-0.01,669,2019-03-25 16:59:36:485
0.73,0.83,9.95,0.33,-0.06,0.02,0.0,0.0,-0.01,673,2019-03-25 16:59:36:489
0.73,0.83,9.95,0.33,-0.06,0.02,0.0,0.0,-0.01,680,2019-03-25 16:59:36:496
0.73,0.83,9.95,0.33,-0.06,0.02,0.0,0.0,-0.01,684,2019-03-25 16:59:36:500
0.52,0.4,9.86,0.33,-0.06,0.02,0.0,0.0,-0.03,689,2019-03-25 16:59:36:505
0.52,0.4,9.86,0.06,-0.6,-0.04,0.0,0.0,-0.03,694,2019-03-25 16:59:36:510
0.52,0.4,9.86,0.06,-0.6,-0.04,0.0,0.0,0.0,699,2019-03-25 16:59:36:515
0.52,0.4,9.86,0.06,-0.6,-0.04,0.0,0.0,0.0,705,2019-03-25 16:59:36:521
0.52,0.4,9.86,0.06,-0.6,-0.04,0.0,0.0,0.0,709,2019-03-25 16:59:36:525
0.52,0.4,9.86,0.06,-0.6,-0.04,0.0,0.0,0.0,714,2019-03-25 16:59:36:530
0.67,0.57,9.94,0.06,-0.6,-0.04,0.0,0.0,0.0,719,2019-03-25 16:59:36:535
0.67,0.57,9.94,0.18,-0.42,0.04,0.0,0.0,0.02,724,2019-03-25 16:59:36:540
0.67,0.57,9.94,0.18,-0.42,0.04,0.0,0.0,0.02,729,2019-03-25 16:59:36:545
0.67,0.57,9.94,0.18,-0.42,0.04,0.0,0.0,0.02,734,2019-03-25 16:59:36:550
0.72,0.86,9.98,0.18,-0.1,0.08,0.01,0.01,0.04,739,2019-03-25 16:59:36:555
0.72,0.86,9.98,0.18,-0.1,0.08,0.01,0.01,0.04,745,2019-03-25 16:59:36:561
0.72,0.86,9.98,0.18,-0.1,0.08,0.01,0.01,0.04,748,2019-03-25 16:59:36:564
0.72,0.86,9.98,0.18,-0.1,0.08,0.01,0.01,0.04,754,2019-03-25 16:59:36:570
0.62,1.35,9.94,0.18,-0.1,0.08,0.01,0.0,0.04,758,2019-03-25 16:59:36:574
0.62,1.35,9.94,0.03,0.4,0.03,0.01,0.0,0.04,764,2019-03-25 16:59:36:580
0.62,1.35,9.94,0.03,0.4,0.03,0.01,0.0,0.04,769,2019-03-25 16:59:36:585
0.62,1.35,9.94,0.03,0.4,0.03,0.01,0.0,0.04,775,2019-03-25 16:59:36:591
0.62,1.35,9.94,0.03,0.4,0.03,0.01,0.0,0.04,779,2019-03-25 16:59:36:595
0.62,1.35,9.94,0.03,0.4,0.03,0.01,0.0,0.04,784,2019-03-25 16:59:36:600
0.62,1.35,9.94,0.03,0.4,0.03,0.01,0.0,0.04,789,2019-03-25 16:59:36:605
0.61,1.67,10.08,-0.04,0.74,0.15,0.01,0.0,0.02,794,2019-03-25 16:59:36:610
0.61,1.67,10.08,-0.04,0.74,0.15,0.01,0.0,0.02,799,2019-03-25 16:59:36:615
0.61,1.67,10.08,-0.04,0.74,0.15,0.01,0.0,0.02,804,2019-03-25 16:59:36:620
0.61,1.67,10.08,-0.04,0.74,0.15,0.01,0.0,0.02,809,2019-03-25 16:59:36:625
0.36,2.13,9.89,-0.32,1.18,-0.04,0.01,0.02,0.0,814,2019-03-25 16:59:36:630
0.36,2.13,9.89,-0.32,1.18,-0.04,0.01,0.02,0.0,819,2019-03-25 16:59:36:635
0.36,2.13,9.89,-0.32,1.18,-0.04,0.01,0.02,0.0,824,2019-03-25 16:59:36:640
0.36,2.13,9.89,-0.32,1.18,-0.04,0.01,0.02,0.0,829,2019-03-25 16:59:36:645
0.39,2.35,10.06,-0.27,1.27,0.09,0.02,0.01,-0.01,834,2019-03-25 16:59:36:650
0.39,2.35,10.06,-0.27,1.27,0.09,0.02,0.01,-0.01,839,2019-03-25 16:59:36:655
0.39,2.35,10.06,-0.27,1.27,0.09,0.02,0.01,-0.01,845,2019-03-25 16:59:36:661
0.39,2.35,10.06,-0.27,1.27,0.09,0.02,0.01,-0.01,850,2019-03-25 16:59:36:666
0.39,2.35,10.06,-0.27,1.27,0.09,0.02,0.01,-0.01,854,2019-03-25 16:59:36:670
0.3,2.14,9.67,-0.3,0.91,-0.29,0.02,0.04,-0.03,859,2019-03-25 16:59:36:675
0.3,2.14,9.67,-0.3,0.91,-0.29,0.02,0.04,-0.03,864,2019-03-25 16:59:36:680
0.3,2.14,9.67,-0.3,0.91,-0.29,0.02,0.04,-0.03,869,2019-03-25 16:59:36:685
0.3,2.14,9.67,-0.3,0.91,-0.29,0.02,0.04,-0.03,874,2019-03-25 16:59:36:690
0.24,1.99,10.28,-0.27,0.59,0.29,0.02,0.04,-0.04,879,2019-03-25 16:59:36:695
0.24,1.99,10.28,-0.27,0.59,0.29,0.02,0.04,-0.04,884,2019-03-25 16:59:36:700
0.24,1.99,10.28,-0.27,0.59,0.29,0.02,0.04,-0.04,889,2019-03-25 16:59:36:705
0.31,2.19,9.47,-0.18,0.59,-0.49,0.03,0.02,-0.07,894,2019-03-25 16:59:36:710
0.31,2.19,9.47,-0.18,0.59,-0.49,0.03,0.02,-0.07,899,2019-03-25 16:59:36:715
0.31,2.19,9.47,-0.18,0.59,-0.49,0.03,0.02,-0.07,905,2019-03-25 16:59:36:721
0.31,2.19,9.47,-0.18,0.59,-0.49,0.03,0.02,-0.07,909,2019-03-25 16:59:36:725
0.31,2.19,9.47,-0.18,0.59,-0.49,0.03,0.02,-0.07,914,2019-03-25 16:59:36:730
0.65,1.75,9.88,0.13,-0.15,-0.02,0.03,0.0,-0.1,919,2019-03-25 16:59:36:735
0.65,1.75,9.88,0.13,-0.15,-0.02,0.03,0.0,-0.1,924,2019-03-25 16:59:36:740
0.65,1.75,9.88,0.13,-0.15,-0.02,0.03,0.0,-0.1,929,2019-03-25 16:59:36:745
0.65,1.75,9.88,0.13,-0.15,-0.02,0.03,0.0,-0.1,934,2019-03-25 16:59:36:750
0.65,1.75,9.88,0.13,-0.15,-0.02,0.03,0.0,-0.1,939,2019-03-25 16:59:36:755
0.65,1.75,9.88,0.13,-0.15,-0.02,0.03,0.0,-0.1,944,2019-03-25 16:59:36:760
0.74,1.66,9.3,0.13,-0.15,-0.02,0.03,0.0,-0.12,950,2019-03-25 16:59:36:766
0.74,1.66,9.3,0.21,-0.34,-0.54,0.03,0.0,-0.12,954,2019-03-25 16:59:36:770
0.74,1.66,9.3,0.21,-0.34,-0.54,0.03,0.0,-0.12,959,2019-03-25 16:59:36:775
0.74,1.66,9.3,0.21,-0.34,-0.54,0.03,0.0,-0.12,964,2019-03-25 16:59:36:780
0.46,2.31,10.52,0.21,-0.34,-0.54,0.02,-0.02,-0.14,969,2019-03-25 16:59:36:785
0.46,2.31,10.52,0.21,-0.34,-0.54,0.02,-0.02,-0.14,974,2019-03-25 16:59:36:790
0.46,2.31,10.52,-0.05,0.21,0.66,0.02,-0.02,-0.14,979,2019-03-25 16:59:36:795
0.46,2.31,10.52,-0.05,0.21,0.66,0.02,-0.02,-0.14,984,2019-03-25 16:59:36:800
0.46,2.31,10.52,-0.05,0.21,0.66,0.02,-0.02,-0.14,990,2019-03-25 16:59:36:806
0.46,2.31,10.52,-0.05,0.21,0.66,0.02,-0.02,-0.14,994,2019-03-25 16:59:36:810
0.55,2.26,9.74,0.05,0.05,-0.11,0.03,-0.02,-0.15,999,2019-03-25 16:59:36:815
0.55,2.26,9.74,0.05,0.05,-0.11,0.03,-0.02,-0.15,1004,2019-03-25 16:59:36:820
0.55,2.26,9.74,0.05,0.05,-0.11,0.03,-0.02,-0.15,1009,2019-03-25 16:59:36:825
0.55,2.26,9.74,0.05,0.05,-0.11,0.03,-0.02,-0.15,1014,2019-03-25 16:59:36:830
0.55,2.26,9.74,0.05,0.05,-0.11,0.03,-0.02,-0.15,1019,2019-03-25 16:59:36:835
0.55,2.26,9.74,0.05,0.05,-0.11,0.03,-0.02,-0.15,1024,2019-03-25 16:59:36:840
0.51,2.64,10.81,0.02,0.41,0.89,0.03,-0.01,-0.15,1029,2019-03-25 16:59:36:845
0.51,2.64,10.81,0.02,0.41,0.89,0.03,-0.01,-0.15,1034,2019-03-25 16:59:36:850
0.51,2.64,10.81,0.02,0.41,0.89,0.03,-0.01,-0.15,1039,2019-03-25 16:59:36:855
0.51,2.64,10.81,0.02,0.41,0.89,0.03,-0.01,-0.15,1043,2019-03-25 16:59:36:859
-0.2,2.19,9.57,-0.68,-0.02,-0.28,0.04,-0.03,-0.12,1049,2019-03-25 16:59:36:865
-0.2,2.19,9.57,-0.68,-0.02,-0.28,0.04,-0.03,-0.12,1054,2019-03-25 16:59:36:870
-0.2,2.19,9.57,-0.68,-0.02,-0.28,0.04,-0.03,-0.12,1058,2019-03-25 16:59:36:874
-0.2,2.19,9.57,-0.68,-0.02,-0.28,0.04,-0.04,-0.11,1065,2019-03-25 16:59:36:881
0.61,1.77,9.82,0.15,-0.38,0.0,0.04,-0.04,-0.11,1069,2019-03-25 16:59:36:885
0.61,1.77,9.82,0.15,-0.38,0.0,0.04,-0.04,-0.11,1074,2019-03-25 16:59:36:890
0.61,1.77,9.82,0.15,-0.38,0.0,0.03,-0.06,-0.02,1079,2019-03-25 16:59:36:895
0.61,1.77,9.82,0.15,-0.38,0.0,0.03,-0.06,-0.02,1085,2019-03-25 16:59:36:901
0.61,1.77,9.82,0.15,-0.38,0.0,0.03,-0.06,-0.02,1089,2019-03-25 16:59:36:905
0.61,1.77,9.82,0.15,-0.38,0.0,0.03,-0.06,-0.02,1094,2019-03-25 16:59:36:910
0.61,1.77,9.82,0.15,-0.38,0.0,0.03,-0.06,-0.02,1099,2019-03-25 16:59:36:915
0.61,1.77,9.82,0.15,-0.38,0.0,0.03,-0.06,-0.02,1104,2019-03-25 16:59:36:920
-0.37,1.7,9.95,-0.76,-0.39,0.08,0.01,-0.02,-0.01,1109,2019-03-25 16:59:36:925
-0.37,1.7,9.95,-0.76,-0.39,0.08,0.01,-0.02,-0.01,1114,2019-03-25 16:59:36:930
-0.2,1.85,9.95,-0.76,-0.39,0.08,0.01,-0.06,0.0,1119,2019-03-25 16:59:36:935
-0.2,1.85,9.95,-0.76,-0.39,0.08,0.01,-0.06,0.0,1124,2019-03-25 16:59:36:940
-0.2,1.85,9.95,-0.76,-0.39,0.08,0.01,-0.06,0.0,1129,2019-03-25 16:59:36:945
-0.2,1.85,9.95,-0.76,-0.39,0.08,0.01,-0.06,0.0,1134,2019-03-25 16:59:36:950
-0.2,1.85,9.95,-0.76,-0.39,0.08,0.01,-0.06,0.0,1139,2019-03-25 16:59:36:955
-0.51,2.02,9.33,-0.79,0.0,-0.53,0.0,-0.03,0.05,1144,2019-03-25 16:59:36:960
-0.51,2.02,9.33,-0.79,0.0,-0.53,0.0,-0.03,0.05,1149,2019-03-25 16:59:36:965
-0.51,2.02,9.33,-0.79,0.0,-0.53,0.0,-0.03,0.05,1154,2019-03-25 16:59:36:970
0.65,2.28,8.33,0.38,0.25,-1.36,-0.04,-0.05,0.05,1159,2019-03-25 16:59:36:975
0.65,2.28,8.33,0.38,0.25,-1.36,-0.04,-0.05,0.05,1164,2019-03-25 16:59:36:980
0.65,2.28,8.33,0.38,0.25,-1.36,-0.04,-0.05,0.05,1169,2019-03-25 16:59:36:985
0.65,2.28,8.33,0.38,0.25,-1.36,-0.13,-0.09,0.0,1174,2019-03-25 16:59:36:990
0.65,2.28,8.33,0.38,0.25,-1.36,-0.13,-0.09,0.0,1179,2019-03-25 16:59:36:995
0.65,2.28,8.33,0.38,0.25,-1.36,-0.13,-0.09,0.0,1184,2019-03-25 16:59:37:000
0.65,2.28,8.33,0.38,0.25,-1.36,-0.13,-0.09,0.0,1189,2019-03-25 16:59:37:005
0.65,2.28,8.33,0.38,0.25,-1.36,-0.13,-0.09,0.0,1194,2019-03-25 16:59:37:010
0.55,1.38,11.74,0.25,-0.52,1.95,-0.12,-0.08,-0.02,1199,2019-03-25 16:59:37:015
0.55,1.38,11.74,0.25,-0.52,1.95,-0.12,-0.08,-0.02,1204,2019-03-25 16:59:37:020
0.55,1.38,11.74,0.25,-0.52,1.95,-0.12,-0.08,-0.02,1209,2019-03-25 16:59:37:025
0.55,1.38,11.74,0.25,-0.52,1.95,-0.12,-0.08,-0.02,1214,2019-03-25 16:59:37:030
0.55,1.38,11.74,0.25,-0.52,1.95,-0.12,-0.08,-0.02,1219,2019-03-25 16:59:37:035
0.66,1.82,11.43,0.32,-0.03,1.57,-0.04,-0.05,-0.04,1224,2019-03-25 16:59:37:040
0.66,1.82,11.43,0.32,-0.03,1.57,-0.04,-0.05,-0.04,1229,2019-03-25 16:59:37:045
0.66,1.82,11.43,0.32,-0.03,1.57,-0.04,-0.05,-0.04,1234,2019-03-25 16:59:37:050
0.66,1.82,11.43,0.32,-0.03,1.57,-0.04,-0.05,-0.04,1239,2019-03-25 16:59:37:055
0.66,1.82,11.43,0.32,-0.03,1.57,-0.04,-0.05,-0.04,1244,2019-03-25 16:59:37:060
1.37,1.67,10.25,0.91,-0.15,0.3,0.04,-0.04,-0.07,1249,2019-03-25 16:59:37:065
1.37,1.67,10.25,0.91,-0.15,0.3,0.04,-0.04,-0.07,1256,2019-03-25 16:59:37:072
1.37,1.67,10.25,0.91,-0.15,0.3,0.04,-0.04,-0.07,1259,2019-03-25 16:59:37:075
0.25,2.3,9.44,-0.27,0.44,-0.54,0.03,0.02,-0.04,1264,2019-03-25 16:59:37:080
0.25,2.3,9.44,-0.27,0.44,-0.54,0.03,0.02,-0.04,1269,2019-03-25 16:59:37:085
0.25,2.3,9.44,-0.27,0.44,-0.54,0.03,0.02,-0.04,1274,2019-03-25 16:59:37:090
0.25,2.3,9.44,-0.27,0.44,-0.54,0.03,0.02,-0.04,1280,2019-03-25 16:59:37:096
0.27,1.83,7.21,-0.25,-0.05,-2.56,0.02,0.02,-0.03,1284,2019-03-25 16:59:37:100
0.27,1.83,7.21,-0.25,-0.05,-2.56,0.02,0.02,-0.03,1289,2019-03-25 16:59:37:105
0.27,1.83,7.21,-0.25,-0.05,-2.56,0.02,0.02,-0.03,1294,2019-03-25 16:59:37:110
0.27,1.83,7.21,-0.25,-0.05,-2.56,0.02,0.02,-0.03,1299,2019-03-25 16:59:37:115
0.27,1.83,7.21,-0.25,-0.05,-2.56,0.02,0.02,-0.03,1304,2019-03-25 16:59:37:120
0.8,1.89,10.66,0.18,0.0,0.92,-0.09,0.0,-0.02,1309,2019-03-25 16:59:37:125
0.8,1.89,10.66,0.18,0.0,0.92,-0.09,0.0,-0.02,1314,2019-03-25 16:59:37:130
0.8,1.89,10.66,0.18,0.0,0.92,-0.09,0.0,-0.02,1319,2019-03-25 16:59:37:135
0.17,0.29,9.42,-0.43,-1.53,-0.3,-0.05,-0.04,0.0,1324,2019-03-25 16:59:37:140
0.17,0.29,9.42,-0.43,-1.53,-0.3,-0.05,-0.04,0.0,1329,2019-03-25 16:59:37:145
0.17,0.29,9.42,-0.43,-1.53,-0.3,-0.05,-0.04,0.0,1334,2019-03-25 16:59:37:150
0.17,0.29,9.42,-0.43,-1.53,-0.3,-0.05,-0.04,0.0,1339,2019-03-25 16:59:37:155
0.17,0.29,9.42,-0.43,-1.53,-0.3,-0.05,-0.04,0.0,1343,2019-03-25 16:59:37:159
0.06,0.14,10.35,-0.55,-1.53,0.54,-0.07,-0.05,-0.01,1349,2019-03-25 16:59:37:165
0.06,0.14,10.35,-0.55,-1.53,0.54,-0.07,-0.05,-0.01,1354,2019-03-25 16:59:37:170
0.06,0.14,10.35,-0.55,-1.53,0.54,-0.07,-0.05,-0.01,1359,2019-03-25 16:59:37:175
0.43,-0.45,10.73,-0.2,-1.83,0.68,-0.04,0.0,0.0,1364,2019-03-25 16:59:37:180
0.43,-0.45,10.73,-0.2,-1.83,0.68,-0.04,0.0,0.0,1369,2019-03-25 16:59:37:185
0.43,-0.45,10.73,-0.2,-1.83,0.68,-0.04,0.0,0.0,1374,2019-03-25 16:59:37:190
0.43,-0.45,10.73,-0.2,-1.83,0.68,-0.04,0.0,0.0,1379,2019-03-25 16:59:37:195
0.93,1.04,9.8,0.27,-0.16,-0.33,0.0,0.01,0.0,1384,2019-03-25 16:59:37:200
0.93,1.04,9.8,0.27,-0.16,-0.33,0.0,0.01,0.0,1389,2019-03-25 16:59:37:205
0.93,1.04,9.8,0.27,-0.16,-0.33,0.0,0.01,0.0,1393,2019-03-25 16:59:37:209
0.93,1.04,9.8,0.27,-0.16,-0.33,0.0,0.01,0.0,1399,2019-03-25 16:59:37:215
0.93,1.04,9.8,0.27,-0.16,-0.33,0.0,0.01,0.0,1404,2019-03-25 16:59:37:220
0.93,1.04,9.8,0.24,0.61,-0.4,0.0,0.01,0.0,1409,2019-03-25 16:59:37:225
0.93,1.04,9.8,0.24,0.61,-0.4,0.0,0.01,0.0,1414,2019-03-25 16:59:37:230
0.93,1.04,9.8,0.24,0.61,-0.4,0.0,0.01,0.0,1419,2019-03-25 16:59:37:235
1.07,1.68,11.18,0.35,0.59,1.39,-0.08,0.0,-0.06,1424,2019-03-25 16:59:37:240
1.07,1.68,11.18,0.35,0.59,1.39,-0.08,0.0,-0.06,1429,2019-03-25 16:59:37:245
1.07,1.68,11.18,0.35,0.59,1.39,-0.08,0.0,-0.06,1434,2019-03-25 16:59:37:250
1.07,1.68,11.18,0.35,0.59,1.39,-0.08,0.0,-0.06,1439,2019-03-25 16:59:37:255
1.48,0.89,10.51,0.77,-0.12,0.67,-0.03,0.0,-0.11,1444,2019-03-25 16:59:37:260
1.48,0.89,10.51,0.77,-0.12,0.67,-0.03,0.0,-0.11,1449,2019-03-25 16:59:37:265
1.48,0.89,10.51,0.77,-0.12,0.67,-0.03,0.0,-0.11,1454,2019-03-25 16:59:37:270
1.48,0.89,10.51,0.77,-0.12,0.67,-0.03,0.0,-0.11,1460,2019-03-25 16:59:37:276
1.48,0.89,10.51,0.77,-0.12,0.67,-0.03,0.0,-0.11,1464,2019-03-25 16:59:37:280
1.48,0.89,10.51,0.77,-0.12,0.67,-0.03,0.0,-0.11,1470,2019-03-25 16:59:37:286
1.48,0.89,10.51,0.77,-0.12,0.67,-0.03,0.0,-0.11,1474,2019-03-25 16:59:37:290
1.48,0.89,10.51,0.77,-0.12,0.67,-0.03,0.0,-0.11,1479,2019-03-25 16:59:37:295
0.63,-0.42,8.71,-0.06,-1.04,-1.36,0.11,0.01,-0.08,1484,2019-03-25 16:59:37:300
0.63,-0.42,8.71,-0.06,-1.04,-1.36,0.11,0.01,-0.08,1489,2019-03-25 16:59:37:305
0.63,-0.42,8.71,-0.06,-1.04,-1.36,0.11,0.01,-0.08,1493,2019-03-25 16:59:37:309
0.63,-0.42,8.71,-0.06,-1.04,-1.36,0.11,0.01,-0.08,1500,2019-03-25 16:59:37:316
0.63,-0.42,8.71,-0.06,-1.04,-1.36,0.11,0.01,-0.08,1504,2019-03-25 16:59:37:320
0.38,-0.02,9.26,-0.26,-0.47,-0.72,0.07,0.0,-0.07,1509,2019-03-25 16:59:37:325
0.38,-0.02,9.26,-0.26,-0.47,-0.72,0.07,0.0,-0.07,1514,2019-03-25 16:59:37:330
0.38,-0.02,9.26,-0.26,-0.47,-0.72,0.07,0.0,-0.07,1520,2019-03-25 16:59:37:336
0.38,-0.02,9.26,-0.26,-0.47,-0.72,0.07,0.0,-0.07,1526,2019-03-25 16:59:37:342
0.46,-1.09,9.86,-0.38,-1.43,0.22,0.01,-0.02,-0.08,1529,2019-03-25 16:59:37:345
0.46,-1.09,9.86,-0.38,-1.43,0.22,0.01,-0.02,-0.08,1534,2019-03-25 16:59:37:350
0.46,-1.09,9.86,-0.38,-1.43,0.22,0.01,-0.02,-0.08,1540,2019-03-25 16:59:37:356
0.46,-1.09,9.86,-0.38,-1.43,0.22,0.01,-0.02,-0.08,1544,2019-03-25 16:59:37:360
0.62,-1.29,10.05,-0.1,-1.43,0.04,-0.03,-0.02,-0.07,1549,2019-03-25 16:59:37:365
0.62,-1.29,10.05,-0.1,-1.43,0.04,-0.03,-0.02,-0.07,1554,2019-03-25 16:59:37:370
0.25,-0.9,10.12,-0.1,-1.43,0.04,-0.04,-0.03,-0.06,1561,2019-03-25 16:59:37:377
0.25,-0.9,10.12,-0.1,-1.43,0.04,-0.04,-0.03,-0.06,1564,2019-03-25 16:59:37:380
0.25,-0.9,10.12,-0.45,-1.0,0.16,-0.04,-0.03,-0.06,1570,2019-03-25 16:59:37:386
0.25,-0.9,10.12,-0.45,-1.0,0.16,-0.04,-0.03,-0.06,1575,2019-03-25 16:59:37:391
0.43,-0.7,10.88,-0.23,-0.66,0.84,-0.03,-0.03,-0.03,1579,2019-03-25 16:59:37:395
0.43,-0.7,10.88,-0.23,-0.66,0.84,-0.03,-0.03,-0.03,1584,2019-03-25 16:59:37:400
0.43,-0.7,10.88,-0.23,-0.66,0.84,-0.03,-0.03,-0.03,1590,2019-03-25 16:59:37:406
0.43,-0.86,9.44,-0.23,-0.66,0.84,-0.03,-0.03,-0.03,1597,2019-03-25 16:59:37:413
0.53,-0.86,9.44,-0.07,-0.62,-0.66,0.0,-0.02,-0.03,1600,2019-03-25 16:59:37:416
0.53,-0.86,9.44,-0.07,-0.62,-0.66,0.0,-0.02,-0.03,1605,2019-03-25 16:59:37:421
0.53,-0.86,9.44,-0.07,-0.62,-0.66,0.0,-0.02,-0.03,1609,2019-03-25 16:59:37:425
0.53,-0.86,9.44,-0.07,-0.62,-0.66,0.0,-0.02,-0.03,1615,2019-03-25 16:59:37:431
1.72,-0.47,11.08,1.07,-0.01,0.9,0.02,-0.03,-0.04,1619,2019-03-25 16:59:37:435
1.72,-0.47,11.08,1.07,-0.01,0.9,0.02,-0.03,-0.04,1624,2019-03-25 16:59:37:440
1.72,-0.47,11.08,1.07,-0.01,0.9,0.02,-0.03,-0.04,1629,2019-03-25 16:59:37:445
1.72,-0.47,11.08,1.07,-0.01,0.9,0.02,-0.03,-0.04,1635,2019-03-25 16:59:37:451
1.36,-1.76,8.09,0.69,-1.03,-1.82,0.05,-0.03,-0.05,1639,2019-03-25 16:59:37:455
1.36,-1.76,8.09,0.69,-1.03,-1.82,0.05,-0.03,-0.05,1644,2019-03-25 16:59:37:460
1.36,-1.76,8.09,0.69,-1.03,-1.82,0.05,-0.03,-0.05,1649,2019-03-25 16:59:37:465
1.36,-1.76,8.09,0.69,-1.03,-1.82,0.05,-0.03,-0.05,1655,2019-03-25 16:59:37:471
-0.73,-1.67,11.16,-1.34,-0.76,1.23,0.0,-0.05,-0.09,1659,2019-03-25 16:59:37:475
-0.73,-1.67,11.16,-1.34,-0.76,1.23,0.0,-0.05,-0.09,1664,2019-03-25 16:59:37:480
-0.73,-1.67,11.16,-1.34,-0.76,1.23,0.0,-0.05,-0.09,1669,2019-03-25 16:59:37:485
-0.73,-1.67,11.16,-1.34,-0.76,1.23,0.0,-0.05,-0.09,1674,2019-03-25 16:59:37:490
-0.57,1.38,9.92,-0.97,2.24,-0.05,0.06,-0.01,-0.04,1680,2019-03-25 16:59:37:496
-0.57,1.38,9.92,-0.97,2.24,-0.05,0.06,-0.01,-0.04,1685,2019-03-25 16:59:37:501
-0.57,1.38,9.92,-0.97,2.24,-0.05,0.06,-0.01,-0.04,1689,2019-03-25 16:59:37:505
0.8,7.82,10.29,0.38,8.02,0.18,0.13,-0.01,0.07,1694,2019-03-25 16:59:37:510
0.8,7.82,10.29,0.38,8.02,0.18,0.13,-0.01,0.07,1700,2019-03-25 16:59:37:516
0.8,7.82,10.29,0.38,8.02,0.18,0.13,-0.01,0.07,1706,2019-03-25 16:59:37:522
0.8,7.82,10.29,0.38,8.02,0.18,0.13,-0.01,0.07,1709,2019-03-25 16:59:37:525
0.18,1.71,8.95,-0.21,1.52,-1.08,0.16,0.02,0.04,1715,2019-03-25 16:59:37:531
0.18,1.71,8.95,-0.21,1.52,-1.08,0.16,0.02,0.04,1720,2019-03-25 16:59:37:536
0.18,1.71,8.95,-0.21,1.52,-1.08,0.16,0.02,0.04,1724,2019-03-25 16:59:37:540
0.18,1.71,8.95,-0.21,1.52,-1.08,0.16,0.02,0.04,1730,2019-03-25 16:59:37:546
-0.14,2.1,11.64,-0.55,1.58,1.48,0.07,0.02,0.08,1734,2019-03-25 16:59:37:550
-0.14,2.1,11.64,-0.55,1.58,1.48,0.07,0.02,0.08,1739,2019-03-25 16:59:37:555
-0.14,2.1,11.64,-0.55,1.58,1.48,0.07,0.02,0.08,1744,2019-03-25 16:59:37:560
-0.14,2.1,11.64,-0.55,1.58,1.48,0.07,0.02,0.08,1750,2019-03-25 16:59:37:566
-0.33,1.32,11.28,-0.64,0.57,1.05,0.1,0.05,0.1,1754,2019-03-25 16:59:37:570
-0.33,1.32,11.28,-0.64,0.57,1.05,0.1,0.05,0.1,1760,2019-03-25 16:59:37:576
-0.33,1.32,11.28,-0.64,0.57,1.05,0.1,0.05,0.1,1764,2019-03-25 16:59:37:580
-0.33,1.32,11.28,-0.64,0.57,1.05,0.1,0.05,0.1,1770,2019-03-25 16:59:37:586
0.08,1.92,10.84,-0.16,0.86,0.63,0.15,0.12,0.25,1775,2019-03-25 16:59:37:591
0.08,1.92,10.84,-0.16,0.86,0.63,0.15,0.12,0.25,1778,2019-03-25 16:59:37:594
0.08,1.92,10.84,-0.16,0.86,0.63,0.15,0.12,0.25,1784,2019-03-25 16:59:37:600
0.08,1.92,10.84,-0.16,0.86,0.63,0.15,0.12,0.25,1789,2019-03-25 16:59:37:605
-0.22,2.76,10.97,-0.16,0.86,0.63,0.23,0.11,0.34,1794,2019-03-25 16:59:37:610
-0.22,2.76,10.97,-0.16,0.86,0.63,0.23,0.11,0.34,1799,2019-03-25 16:59:37:615
-0.22,2.76,10.97,-0.37,1.31,0.65,0.28,0.08,0.35,1804,2019-03-25 16:59:37:620
-0.22,2.76,10.97,-0.37,1.31,0.65,0.28,0.08,0.35,1809,2019-03-25 16:59:37:625
0.18,3.74,7.91,-0.37,1.31,0.65,0.28,0.08,0.35,1815,2019-03-25 16:59:37:631
0.18,3.74,7.91,-0.37,1.31,0.65,0.28,0.08,0.35,1819,2019-03-25 16:59:37:635
0.18,3.74,7.91,-0.37,1.31,0.65,0.28,0.08,0.35,1825,2019-03-25 16:59:37:641
0.18,3.74,7.91,-0.37,1.31,0.65,0.28,0.08,0.35,1829,2019-03-25 16:59:37:645
-0.34,4.62,7.1,-0.14,2.13,-2.8,0.19,0.06,0.27,1834,2019-03-25 16:59:37:650
-0.34,4.62,7.1,-0.14,2.13,-2.8,0.19,0.06,0.27,1839,2019-03-25 16:59:37:655
-0.34,4.62,7.1,-0.14,2.13,-2.8,0.19,0.06,0.27,1845,2019-03-25 16:59:37:661
-0.34,4.62,7.1,-0.14,2.13,-2.8,0.19,0.06,0.27,1851,2019-03-25 16:59:37:667
-0.34,4.62,7.1,-0.14,2.13,-2.8,0.19,0.06,0.27,1854,2019-03-25 16:59:37:670
1.77,4.32,10.65,1.86,1.21,0.82,0.01,0.05,0.22,1860,2019-03-25 16:59:37:676
1.77,4.32,10.65,1.86,1.21,0.82,0.01,0.05,0.22,1864,2019-03-25 16:59:37:680
1.77,4.32,10.65,1.86,1.21,0.82,0.01,0.05,0.22,1869,2019-03-25 16:59:37:685
1.77,4.32,10.65,1.86,1.21,0.82,0.01,0.05,0.22,1875,2019-03-25 16:59:37:691
-0.4,2.02,10.15,-0.56,-1.33,0.19,0.06,0.0,0.1,1879,2019-03-25 16:59:37:695
-0.4,2.02,10.15,-0.56,-1.33,0.19,0.06,0.0,0.1,1884,2019-03-25 16:59:37:700
-0.4,2.02,10.15,-0.56,-1.33,0.19,0.06,0.0,0.1,1889,2019-03-25 16:59:37:705
0.02,2.31,6.34,-0.56,-1.33,0.19,0.2,0.01,0.09,1894,2019-03-25 16:59:37:710
0.02,2.31,6.34,-0.56,-1.33,0.19,0.2,0.01,0.09,1902,2019-03-25 16:59:37:718
0.02,2.31,6.34,-0.56,-1.33,0.19,0.2,0.01,0.09,1904,2019-03-25 16:59:37:720
0.02,2.31,6.34,-0.56,-1.33,0.19,0.2,0.01,0.09,1909,2019-03-25 16:59:37:725
0.22,3.75,11.26,0.1,0.76,1.64,0.02,-0.05,0.11,1914,2019-03-25 16:59:37:730
0.22,3.75,11.26,0.1,0.76,1.64,0.02,-0.05,0.11,1920,2019-03-25 16:59:37:736
0.22,3.75,11.26,0.1,0.76,1.64,0.02,-0.05,0.11,1924,2019-03-25 16:59:37:740
0.22,3.75,11.26,0.1,0.76,1.64,0.02,-0.05,0.11,1929,2019-03-25 16:59:37:745
1.15,1.82,8.82,0.96,-1.18,-0.77,0.06,-0.01,0.02,1934,2019-03-25 16:59:37:750
1.15,1.82,8.82,0.96,-1.18,-0.77,0.06,-0.01,0.02,1939,2019-03-25 16:59:37:755
1.15,1.82,8.82,0.96,-1.18,-0.77,0.06,-0.01,0.02,1944,2019-03-25 16:59:37:760
1.15,1.82,8.82,0.96,-1.18,-0.77,0.06,-0.01,0.02,1949,2019-03-25 16:59:37:765
0.91,0.04,9.12,0.59,-2.81,-0.19,-0.01,0.05,0.0,1954,2019-03-25 16:59:37:770
0.91,0.04,9.12,0.59,-2.81,-0.19,-0.01,0.05,0.0,1961,2019-03-25 16:59:37:777
0.91,0.04,9.12,0.59,-2.81,-0.19,-0.01,0.05,0.0,1964,2019-03-25 16:59:37:780
0.91,0.04,9.12,0.59,-2.81,-0.19,-0.01,0.05,0.0,1973,2019-03-25 16:59:37:789
1.71,0.7,13.14,1.23,-1.97,3.6,-0.17,0.08,0.09,1974,2019-03-25 16:59:37:790
1.71,0.7,13.14,1.23,-1.97,3.6,-0.17,0.08,0.09,1979,2019-03-25 16:59:37:795
1.71,0.7,13.14,1.23,-1.97,3.6,-0.17,0.08,0.09,1985,2019-03-25 16:59:37:801
1.71,0.7,13.14,1.23,-1.97,3.6,-0.17,0.08,0.09,1990,2019-03-25 16:59:37:806
-1.11,0.31,7.5,-1.55,-2.11,-1.83,0.06,0.0,0.08,1994,2019-03-25 16:59:37:810
-1.11,0.31,7.5,-1.55,-2.11,-1.83,0.06,0.0,0.08,1999,2019-03-25 16:59:37:815
-1.11,0.31,7.5,-1.55,-2.11,-1.83,0.06,0.0,0.08,2004,2019-03-25 16:59:37:820
-1.11,0.31,7.5,-1.55,-2.11,-1.83,0.06,0.0,0.08,2009,2019-03-25 16:59:37:825
-1.11,0.31,7.5,-1.55,-2.11,-1.83,0.06,0.0,0.08,2014,2019-03-25 16:59:37:830
0.05,0.75,9.75,-0.38,-1.35,0.32,0.0,-0.04,0.09,2019,2019-03-25 16:59:37:835
0.05,0.75,9.75,-0.38,-1.35,0.32,0.0,-0.04,0.09,2024,2019-03-25 16:59:37:840
0.05,0.75,9.75,-0.38,-1.35,0.32,0.0,-0.04,0.09,2029,2019-03-25 16:59:37:845
1.52,-0.07,8.51,0.89,-1.79,-1.29,0.0,-0.09,0.06,2034,2019-03-25 16:59:37:850
1.52,-0.07,8.51,0.89,-1.79,-1.29,0.0,-0.09,0.06,2040,2019-03-25 16:59:37:856
1.52,-0.07,8.51,0.89,-1.79,-1.29,0.0,-0.09,0.06,2046,2019-03-25 16:59:37:862
1.52,-0.07,8.51,0.89,-1.79,-1.29,0.0,-0.09,0.06,2050,2019-03-25 16:59:37:866
-0.21,-0.07,10.32,-0.72,-1.31,0.49,0.02,-0.12,0.05,2054,2019-03-25 16:59:37:870
-0.21,-0.07,10.32,-0.72,-1.31,0.49,0.02,-0.12,0.05,2062,2019-03-25 16:59:37:878
-0.21,-0.07,10.32,-0.72,-1.31,0.49,0.02,-0.12,0.05,2064,2019-03-25 16:59:37:880
-0.21,-0.07,10.32,-0.72,-1.31,0.49,0.02,-0.12,0.05,2069,2019-03-25 16:59:37:885
-0.35,-0.42,10.92,-0.75,-1.34,1.05,0.01,-0.06,0.07,2074,2019-03-25 16:59:37:890
-0.35,-0.42,10.92,-0.75,-1.34,1.05,0.01,-0.06,0.07,2080,2019-03-25 16:59:37:896
-0.35,-0.42,10.92,-0.75,-1.34,1.05,0.01,0.01,0.1,2084,2019-03-25 16:59:37:900
0.44,-0.24,12.64,-0.75,-1.34,1.05,0.07,0.01,0.1,2094,2019-03-25 16:59:37:910
0.44,-0.24,12.64,-0.75,-1.34,1.05,0.07,0.01,0.1,2094,2019-03-25 16:59:37:910
0.44,-0.24,12.64,0.02,-0.89,2.13,0.07,0.01,0.1,2099,2019-03-25 16:59:37:915
0.44,-0.24,12.64,0.02,-0.89,2.13,0.07,0.01,0.1,2104,2019-03-25 16:59:37:920
0.44,-0.24,12.64,0.02,-0.89,2.13,0.07,0.01,0.1,2109,2019-03-25 16:59:37:925
1.3,-1.43,7.02,0.81,-1.65,-3.38,0.22,0.06,0.12,2114,2019-03-25 16:59:37:930
1.3,-1.43,7.02,0.81,-1.65,-3.38,0.22,0.06,0.12,2119,2019-03-25 16:59:37:935
1.3,-1.43,7.02,0.81,-1.65,-3.38,0.22,0.06,0.12,2124,2019-03-25 16:59:37:940
0.88,0.63,10.65,0.44,0.65,0.33,0.13,0.0,0.15,2130,2019-03-25 16:59:37:946
0.88,0.63,10.65,0.44,0.65,0.33,0.13,0.0,0.15,2134,2019-03-25 16:59:37:950
0.88,0.63,10.65,0.44,0.65,0.33,0.13,0.0,0.15,2140,2019-03-25 16:59:37:956
0.88,0.63,10.65,0.44,0.65,0.33,0.13,0.0,0.15,2144,2019-03-25 16:59:37:960
1.12,0.99,9.67,0.65,0.88,-0.88,0.06,0.01,0.1,2150,2019-03-25 16:59:37:966
1.12,0.99,9.67,0.65,0.88,-0.88,0.06,0.01,0.1,2154,2019-03-25 16:59:37:970
1.12,0.99,9.67,0.65,0.88,-0.88,0.06,0.01,0.1,2159,2019-03-25 16:59:37:975
1.12,0.99,9.67,0.65,0.88,-0.88,0.06,0.01,0.1,2164,2019-03-25 16:59:37:980
1.12,0.99,9.67,0.65,0.88,-0.88,0.06,0.01,0.1,2169,2019-03-25 16:59:37:985
1.12,0.99,9.67,0.65,0.88,-0.88,0.06,0.01,0.1,2175,2019-03-25 16:59:37:991
0.08,0.52,10.25,-0.24,0.41,0.03,0.1,0.0,0.03,2179,2019-03-25 16:59:37:995
0.08,0.52,10.25,-0.24,0.41,0.03,0.1,0.0,0.03,2184,2019-03-25 16:59:38:000
0.08,0.52,10.25,-0.24,0.41,0.03,0.1,0.0,0.03,2189,2019-03-25 16:59:38:005
0.08,0.52,10.25,-0.24,0.41,0.03,0.0,0.04,0.08,2194,2019-03-25 16:59:38:010
0.08,0.52,10.25,-0.24,0.41,0.03,0.0,0.04,0.08,2199,2019-03-25 16:59:38:015
0.08,0.52,10.25,-0.24,0.41,0.03,0.0,0.04,0.08,2204,2019-03-25 16:59:38:020
0.08,0.52,10.25,-0.24,0.41,0.03,0.0,0.04,0.08,2210,2019-03-25 16:59:38:026
0.08,0.52,10.25,-0.24,0.41,0.03,0.0,0.04,0.08,2213,2019-03-25 16:59:38:029
0.08,0.52,10.25,-0.24,0.41,0.03,0.0,0.04,0.08,2219,2019-03-25 16:59:38:035
0.08,0.52,10.25,-0.24,0.41,0.03,0.0,0.04,0.08,2224,2019-03-25 16:59:38:040
1.55,0.09,12.53,0.97,0.17,2.25,-0.02,0.01,0.11,2236,2019-03-25 16:59:38:052
1.55,0.09,12.53,0.97,0.17,2.25,-0.02,0.01,0.11,2237,2019-03-25 16:59:38:053
1.55,0.09,12.53,0.97,0.17,2.25,-0.02,0.01,0.11,2239,2019-03-25 16:59:38:055
1.55,0.09,12.53,0.97,0.17,2.25,-0.02,0.01,0.11,2245,2019-03-25 16:59:38:061
1.55,0.09,12.53,0.97,0.17,2.25,-0.02,0.01,0.11,2249,2019-03-25 16:59:38:065
0.65,-0.44,8.79,0.58,-0.06,-1.21,0.14,0.02,0.09,2254,2019-03-25 16:59:38:070
0.65,-0.44,8.79,0.58,-0.06,-1.21,0.14,0.02,0.09,2260,2019-03-25 16:59:38:076
0.65,-0.44,8.79,0.58,-0.06,-1.21,0.14,0.02,0.09,2264,2019-03-25 16:59:38:080
2.72,-0.35,8.7,1.72,-0.25,-1.14,0.05,0.0,0.04,2269,2019-03-25 16:59:38:085
2.72,-0.35,8.7,1.72,-0.25,-1.14,0.05,0.0,0.04,2274,2019-03-25 16:59:38:090
2.72,-0.35,8.7,1.72,-0.25,-1.14,0.05,0.0,0.04,2282,2019-03-25 16:59:38:098
2.72,-0.35,8.7,1.72,-0.25,-1.14,0.05,0.0,0.04,2287,2019-03-25 16:59:38:103
1.0,-0.51,10.97,-0.05,-0.41,1.36,-0.04,-0.05,-0.05,2290,2019-03-25 16:59:38:106
1.0,-0.51,10.97,-0.05,-0.41,1.36,-0.04,-0.05,-0.05,2299,2019-03-25 16:59:38:115
1.0,-0.51,10.97,-0.05,-0.41,1.36,-0.04,-0.05,-0.05,2299,2019-03-25 16:59:38:115
1.0,-0.51,10.97,-0.05,-0.41,1.36,-0.04,-0.05,-0.05,2304,2019-03-25 16:59:38:120
1.0,-0.51,10.97,-0.05,-0.41,1.36,-0.04,-0.05,-0.05,2310,2019-03-25 16:59:38:126
1.0,-0.51,10.97,-0.05,-0.41,1.36,-0.04,-0.05,-0.05,2314,2019-03-25 16:59:38:130
1.0,-0.51,10.97,-0.05,-0.41,1.36,-0.04,-0.05,-0.05,2319,2019-03-25 16:59:38:135
-0.9,0.53,11.42,-1.86,0.57,1.52,-0.04,0.02,-0.07,2325,2019-03-25 16:59:38:141
-0.9,0.53,11.42,-1.86,0.57,1.52,-0.04,0.02,-0.07,2329,2019-03-25 16:59:38:145
-0.9,0.53,11.42,-1.86,0.57,1.52,-0.04,0.02,-0.07,2334,2019-03-25 16:59:38:150
-0.9,0.53,11.42,-1.86,0.57,1.52,-0.04,0.02,-0.07,2340,2019-03-25 16:59:38:156
-0.9,0.53,11.42,-1.86,0.57,1.52,-0.04,0.02,-0.07,2344,2019-03-25 16:59:38:160
-1.08,2.66,8.63,-1.97,1.79,-1.03,0.19,0.05,-0.09,2349,2019-03-25 16:59:38:165
-1.08,2.66,8.63,-1.97,1.79,-1.03,0.19,0.05,-0.09,2355,2019-03-25 16:59:38:171
-1.08,2.66,8.63,-1.97,1.79,-1.03,0.19,0.05,-0.09,2359,2019-03-25 16:59:38:175
-1.08,2.66,8.63,-1.97,1.79,-1.03,0.19,0.05,-0.09,2364,2019-03-25 16:59:38:180
-1.08,2.66,8.63,-1.97,1.79,-1.03,0.19,0.05,-0.09,2368,2019-03-25 16:59:38:184
-1.08,2.66,8.63,-1.97,1.79,-1.03,0.19,0.05,-0.09,2374,2019-03-25 16:59:38:190
-1.08,2.66,8.63,-1.97,1.79,-1.03,0.19,0.05,-0.09,2380,2019-03-25 16:59:38:196
-1.08,2.66,8.63,-1.97,1.79,-1.03,0.19,0.05,-0.09,2383,2019-03-25 16:59:38:199
-0.47,6.03,10.93,-1.07,4.45,1.14,0.02,0.03,-0.06,2389,2019-03-25 16:59:38:205
-0.47,6.03,10.93,-1.07,4.45,1.14,0.02,0.03,-0.06,2394,2019-03-25 16:59:38:210
-0.47,6.03,10.93,-1.07,4.45,1.14,0.02,0.03,-0.06,2399,2019-03-25 16:59:38:215
-0.47,6.03,10.93,-1.07,4.45,1.14,0.02,0.03,-0.06,2404,2019-03-25 16:59:38:220
0.06,5.19,3.91,-0.65,3.23,-5.62,0.18,-0.19,-0.26,2409,2019-03-25 16:59:38:225
0.06,5.19,3.91,-0.65,3.23,-5.62,0.18,-0.19,-0.26,2414,2019-03-25 16:59:38:230
0.06,5.19,3.91,-0.65,3.23,-5.62,0.18,-0.19,-0.26,2419,2019-03-25 16:59:38:235
1.06,1.12,8.57,0.37,-1.04,-0.67,0.0,-0.08,-0.27,2424,2019-03-25 16:59:38:240
1.06,1.12,8.57,0.37,-1.04,-0.67,0.0,-0.08,-0.27,2430,2019-03-25 16:59:38:246
1.06,1.12,8.57,0.37,-1.04,-0.67,0.0,-0.08,-0.27,2434,2019-03-25 16:59:38:250
1.06,1.12,8.57,0.37,-1.04,-0.67,0.0,-0.08,-0.27,2439,2019-03-25 16:59:38:255
1.06,1.12,8.57,0.37,-1.04,-0.67,0.0,-0.08,-0.27,2445,2019-03-25 16:59:38:261
-0.78,0.13,8.27,-1.36,-2.14,-1.06,-0.03,-0.15,-0.29,2450,2019-03-25 16:59:38:266
-0.78,0.13,8.27,-1.36,-2.14,-1.06,-0.03,-0.15,-0.29,2454,2019-03-25 16:59:38:270
-0.78,0.13,8.27,-1.36,-2.14,-1.06,-0.03,-0.15,-0.29,2460,2019-03-25 16:59:38:276
-0.78,0.13,8.27,-1.36,-2.14,-1.06,-0.03,-0.15,-0.29,2464,2019-03-25 16:59:38:280
-0.78,0.13,8.27,-1.36,-2.14,-1.06,-0.03,-0.15,-0.29,2469,2019-03-25 16:59:38:285
-0.78,0.13,8.27,-1.36,-2.14,-1.06,-0.03,-0.15,-0.29,2474,2019-03-25 16:59:38:290
-0.1,0.88,13.02,-1.36,-2.14,-1.06,-0.03,-0.15,-0.29,2479,2019-03-25 16:59:38:295
-0.1,0.88,13.02,-0.39,-1.48,3.34,-0.05,0.02,-0.08,2484,2019-03-25 16:59:38:300
-0.1,0.88,13.02,-0.39,-1.48,3.34,-0.05,0.02,-0.08,2489,2019-03-25 16:59:38:305
-0.1,0.88,13.02,-0.39,-1.48,3.34,-0.05,0.02,-0.08,2495,2019-03-25 16:59:38:311
-0.1,0.88,13.02,-0.39,-1.48,3.34,-0.05,0.02,-0.08,2499,2019-03-25 16:59:38:315
-0.1,0.88,13.02,-0.39,-1.48,3.34,-0.05,0.02,-0.08,2504,2019-03-25 16:59:38:320
-1.84,1.15,10.1,-1.67,-1.59,0.46,0.14,0.12,0.18,2509,2019-03-25 16:59:38:325
-1.84,1.15,10.1,-1.67,-1.59,0.46,0.14,0.12,0.18,2514,2019-03-25 16:59:38:330
-1.84,1.15,10.1,-1.67,-1.59,0.46,0.14,0.12,0.18,2519,2019-03-25 16:59:38:335
-1.84,1.15,10.1,-1.67,-1.59,0.46,0.14,0.12,0.18,2524,2019-03-25 16:59:38:340
0.0,0.89,6.84,0.5,-1.34,-2.38,0.0,0.03,0.26,2529,2019-03-25 16:59:38:345
0.0,0.89,6.84,0.5,-1.34,-2.38,0.0,0.03,0.26,2534,2019-03-25 16:59:38:350
0.0,0.89,6.84,0.5,-1.34,-2.38,0.0,0.03,0.26,2542,2019-03-25 16:59:38:358
0.0,0.89,6.84,0.5,-1.34,-2.38,0.0,0.03,0.26,2544,2019-03-25 16:59:38:360
0.0,0.89,6.84,0.5,-1.34,-2.38,0.0,0.03,0.26,2549,2019-03-25 16:59:38:365
0.2,2.91,11.86,0.59,0.79,2.39,-0.19,-0.23,0.3,2555,2019-03-25 16:59:38:371
0.2,2.91,11.86,0.59,0.79,2.39,-0.19,-0.23,0.3,2567,2019-03-25 16:59:38:383
0.2,2.91,11.86,0.59,0.79,2.39,-0.19,-0.23,0.3,2569,2019-03-25 16:59:38:385
0.86,3.34,11.55,0.94,1.69,1.98,-0.19,0.08,0.46,2570,2019-03-25 16:59:38:386
0.86,3.34,11.55,0.94,1.69,1.98,-0.19,0.08,0.46,2574,2019-03-25 16:59:38:390
0.86,3.34,11.55,0.94,1.69,1.98,-0.19,0.08,0.46,2579,2019-03-25 16:59:38:395
0.86,3.34,11.55,0.94,1.69,1.98,-0.19,0.08,0.46,2584,2019-03-25 16:59:38:400
-1.28,1.68,10.54,-0.93,0.06,0.42,0.0,0.05,0.34,2589,2019-03-25 16:59:38:405
-1.28,1.68,10.54,-0.93,0.06,0.42,0.0,0.05,0.34,2594,2019-03-25 16:59:38:410
-1.28,1.68,10.54,-0.93,0.06,0.42,0.0,0.05,0.34,2599,2019-03-25 16:59:38:415
-1.28,1.68,10.54,-0.93,0.06,0.42,0.0,0.05,0.34,2604,2019-03-25 16:59:38:420
1.3,1.06,7.06,1.73,-0.45,-2.98,0.05,0.04,0.27,2609,2019-03-25 16:59:38:425
1.3,1.06,7.06,1.73,-0.45,-2.98,0.05,0.04,0.27,2614,2019-03-25 16:59:38:430
1.3,1.06,7.06,1.73,-0.45,-2.98,0.05,0.04,0.27,2619,2019-03-25 16:59:38:435
1.3,1.06,7.06,1.73,-0.45,-2.98,0.05,0.04,0.27,2624,2019-03-25 16:59:38:440
-1.94,2.0,9.91,-1.29,0.38,-0.01,0.01,-0.06,0.2,2629,2019-03-25 16:59:38:445
-1.94,2.0,9.91,-1.29,0.38,-0.01,0.01,-0.06,0.2,2634,2019-03-25 16:59:38:450
-1.94,2.0,9.91,-1.29,0.38,-0.01,0.01,-0.06,0.2,2640,2019-03-25 16:59:38:456
-1.94,2.0,9.91,-1.29,0.38,-0.01,0.01,-0.06,0.2,2645,2019-03-25 16:59:38:461
4.69,1.16,11.45,5.02,-0.66,1.48,-0.1,-0.14,0.09,2649,2019-03-25 16:59:38:465
4.69,1.16,11.45,5.02,-0.66,1.48,-0.1,-0.14,0.09,2654,2019-03-25 16:59:38:470
4.69,1.16,11.45,5.02,-0.66,1.48,-0.1,-0.14,0.09,2659,2019-03-25 16:59:38:475
4.69,1.16,11.45,5.02,-0.66,1.48,-0.1,-0.14,0.09,2664,2019-03-25 16:59:38:480
4.69,1.16,11.45,5.02,-0.66,1.48,-0.1,-0.14,0.09,2670,2019-03-25 16:59:38:486
2.41,0.16,9.94,2.31,-1.58,0.18,-0.04,-0.09,0.0,2674,2019-03-25 16:59:38:490
2.41,0.16,9.94,2.31,-1.58,0.18,-0.04,-0.09,0.0,2680,2019-03-25 16:59:38:496
2.41,0.16,9.94,2.31,-1.58,0.18,-0.04,-0.09,0.0,2684,2019-03-25 16:59:38:500
2.41,0.16,9.94,2.31,-1.58,0.18,-0.04,-0.09,0.0,2690,2019-03-25 16:59:38:506
2.41,0.16,9.94,2.31,-1.58,0.18,-0.04,-0.09,0.0,2694,2019-03-25 16:59:38:510
1.46,-0.61,6.77,0.98,-2.17,-2.72,-0.04,-0.07,0.0,2700,2019-03-25 16:59:38:516
1.46,-0.61,6.77,0.98,-2.17,-2.72,-0.04,-0.07,0.0,2706,2019-03-25 16:59:38:522
1.46,-0.61,6.77,0.98,-2.17,-2.72,-0.04,-0.07,0.0,2709,2019-03-25 16:59:38:525
-0.4,0.11,10.51,0.98,-2.17,-2.72,-0.23,-0.13,-0.02,2714,2019-03-25 16:59:38:530
-0.4,0.11,10.51,0.98,-2.17,-2.72,-0.23,-0.13,-0.02,2719,2019-03-25 16:59:38:535
-0.4,0.11,10.51,0.98,-2.17,-2.72,-0.23,-0.13,-0.02,2724,2019-03-25 16:59:38:540
-0.4,0.11,10.51,0.98,-2.17,-2.72,-0.23,-0.13,-0.02,2729,2019-03-25 16:59:38:545
0.28,0.48,11.44,-0.41,-0.75,1.45,-0.18,-0.09,-0.07,2735,2019-03-25 16:59:38:551
0.28,0.48,11.44,-0.41,-0.75,1.45,-0.18,-0.09,-0.07,2739,2019-03-25 16:59:38:555
0.28,0.48,11.44,-0.41,-0.75,1.45,-0.18,-0.09,-0.07,2745,2019-03-25 16:59:38:561
0.28,0.48,11.44,-0.41,-0.75,1.45,-0.18,-0.09,-0.07,2749,2019-03-25 16:59:38:565
0.28,0.48,11.44,-0.41,-0.75,1.45,-0.18,-0.09,-0.07,2755,2019-03-25 16:59:38:571
1.96,-0.92,10.12,1.13,-1.76,0.36,-0.16,-0.06,-0.12,2759,2019-03-25 16:59:38:575
1.96,-0.92,10.12,1.13,-1.76,0.36,-0.16,-0.06,-0.12,2767,2019-03-25 16:59:38:583
1.96,-0.92,10.12,1.13,-1.76,0.36,-0.16,-0.06,-0.12,2768,2019-03-25 16:59:38:584
1.96,-0.92,10.12,1.13,-1.76,0.36,-0.16,-0.06,-0.12,2774,2019-03-25 16:59:38:590
2.11,-0.48,12.14,1.11,-0.92,2.39,-0.12,-0.06,-0.1,2779,2019-03-25 16:59:38:595
2.11,-0.48,12.14,1.11,-0.92,2.39,-0.12,-0.06,-0.1,2785,2019-03-25 16:59:38:601
2.11,-0.48,12.14,1.11,-0.92,2.39,-0.12,-0.06,-0.1,2789,2019-03-25 16:59:38:605
2.11,-0.48,12.14,1.11,-0.92,2.39,-0.12,-0.06,-0.1,2794,2019-03-25 16:59:38:610
1.88,-0.29,9.05,0.56,-0.59,-0.76,0.0,-0.03,-0.11,2800,2019-03-25 16:59:38:616
1.88,-0.29,9.05,0.56,-0.59,-0.76,0.0,-0.03,-0.11,2804,2019-03-25 16:59:38:620
1.88,-0.29,9.05,0.56,-0.59,-0.76,0.0,-0.03,-0.11,2809,2019-03-25 16:59:38:625
1.88,-0.29,9.05,0.56,-0.59,-0.76,-0.04,-0.04,-0.1,2814,2019-03-25 16:59:38:630
1.88,-0.29,9.05,0.56,-0.59,-0.76,-0.04,-0.04,-0.1,2819,2019-03-25 16:59:38:635
1.88,-0.29,9.05,0.56,-0.59,-0.76,-0.04,-0.04,-0.1,2824,2019-03-25 16:59:38:640
1.88,-0.29,9.05,0.56,-0.59,-0.76,-0.04,-0.04,-0.1,2829,2019-03-25 16:59:38:645
0.0,-1.74,12.03,-1.47,-1.48,1.98,-0.09,0.0,-0.02,2834,2019-03-25 16:59:38:650
0.0,-1.74,12.03,-1.47,-1.48,1.98,-0.09,0.0,-0.02,2839,2019-03-25 16:59:38:655
0.0,-1.74,12.03,-1.47,-1.48,1.98,-0.09,0.0,-0.02,2844,2019-03-25 16:59:38:660
0.0,-1.74,12.03,-1.47,-1.48,1.98,-0.09,0.0,-0.02,2849,2019-03-25 16:59:38:665
0.0,-1.74,12.03,-1.47,-1.48,1.98,-0.09,0.0,-0.02,2854,2019-03-25 16:59:38:670
0.09,-2.09,10.8,-1.02,-1.5,0.6,0.02,0.04,0.01,2859,2019-03-25 16:59:38:675
0.09,-2.09,10.8,-1.02,-1.5,0.6,0.02,0.04,0.01,2864,2019-03-25 16:59:38:680
0.09,-2.09,10.8,-1.02,-1.5,0.6,0.02,0.04,0.01,2869,2019-03-25 16:59:38:685
0.09,-2.09,10.8,-1.02,-1.5,0.6,0.02,0.04,0.01,2874,2019-03-25 16:59:38:690
0.51,-2.32,8.86,-0.27,-1.4,-1.17,0.03,0.06,0.11,2879,2019-03-25 16:59:38:695
0.51,-2.32,8.86,-0.27,-1.4,-1.17,0.03,0.06,0.11,2884,2019-03-25 16:59:38:700
0.51,-2.32,8.86,-0.27,-1.4,-1.17,0.03,0.06,0.11,2889,2019-03-25 16:59:38:705
0.36,-0.79,10.12,-0.21,0.1,-0.15,0.01,0.05,0.17,2894,2019-03-25 16:59:38:710
0.36,-0.79,10.12,-0.21,0.1,-0.15,0.01,0.05,0.17,2912,2019-03-25 16:59:38:728
0.36,-0.79,10.12,-0.21,0.1,-0.15,0.01,0.05,0.17,2913,2019-03-25 16:59:38:729
0.36,-0.79,10.12,-0.21,0.1,-0.15,0.01,0.05,0.17,2913,2019-03-25 16:59:38:729
0.36,-0.79,10.12,-0.21,0.1,-0.15,0.01,0.05,0.17,2913,2019-03-25 16:59:38:729
0.71,0.4,10.18,0.08,1.22,-0.14,0.03,0.08,0.24,2919,2019-03-25 16:59:38:735
0.71,0.4,10.18,0.08,1.22,-0.14,0.03,0.08,0.24,2924,2019-03-25 16:59:38:740
1.35,0.82,9.96,0.56,1.57,-0.23,0.05,0.06,0.23,2929,2019-03-25 16:59:38:745
1.35,0.82,9.96,0.56,1.57,-0.23,0.05,0.06,0.23,2934,2019-03-25 16:59:38:750
1.35,0.82,9.96,0.56,1.57,-0.23,0.05,0.06,0.23,2940,2019-03-25 16:59:38:756
1.35,0.82,9.96,0.56,1.57,-0.23,0.05,0.06,0.23,2944,2019-03-25 16:59:38:760
1.35,0.82,9.96,0.56,1.57,-0.23,0.05,0.06,0.23,2949,2019-03-25 16:59:38:765
1.35,0.82,9.96,0.56,1.57,-0.23,0.05,0.06,0.23,2954,2019-03-25 16:59:38:770
0.94,-1.32,9.53,0.2,-0.53,-0.61,0.06,0.03,0.18,2959,2019-03-25 16:59:38:775
0.94,-1.32,9.53,0.2,-0.53,-0.61,0.06,0.03,0.18,2964,2019-03-25 16:59:38:780
0.94,-1.32,9.53,0.2,-0.53,-0.61,0.06,0.03,0.18,2972,2019-03-25 16:59:38:788
0.94,-1.32,9.53,0.2,-0.53,-0.61,0.06,0.03,0.18,2974,2019-03-25 16:59:38:790
2.23,5.93,9.22,1.51,6.23,-0.72,0.09,0.0,0.15,2979,2019-03-25 16:59:38:795
2.23,5.93,9.22,1.51,6.23,-0.72,0.09,0.0,0.15,2984,2019-03-25 16:59:38:800
2.23,5.93,9.22,1.51,6.23,-0.72,0.09,0.0,0.15,2989,2019-03-25 16:59:38:805
2.23,5.93,9.22,1.51,6.23,-0.72,0.09,0.0,0.15,2994,2019-03-25 16:59:38:810
0.45,2.55,9.2,-0.12,2.24,-0.68,0.14,0.12,0.03,3000,2019-03-25 16:59:38:816
0.45,2.55,9.2,-0.12,2.24,-0.68,0.14,0.12,0.03,3004,2019-03-25 16:59:38:820
-2.9,3.95,8.87,-0.12,2.24,-0.68,0.14,0.12,0.03,3011,2019-03-25 16:59:38:827
-2.9,3.95,8.87,-0.12,2.24,-0.68,0.14,0.12,0.03,3014,2019-03-25 16:59:38:830
-2.9,3.95,8.87,-3.3,3.21,-1.15,0.03,0.41,0.08,3019,2019-03-25 16:59:38:835
-2.9,3.95,8.87,-3.3,3.21,-1.15,0.03,0.41,0.08,3024,2019-03-25 16:59:38:840
-2.9,3.95,8.87,-3.3,3.21,-1.15,0.03,0.41,0.08,3029,2019-03-25 16:59:38:845
-2.9,3.95,8.87,-3.3,3.21,-1.15,0.03,0.41,0.08,3034,2019-03-25 16:59:38:850
0.8,0.79,7.31,0.34,-0.12,-2.35,0.19,-0.04,0.05,3039,2019-03-25 16:59:38:855
0.8,0.79,7.31,0.34,-0.12,-2.35,0.19,-0.04,0.05,3044,2019-03-25 16:59:38:860
0.8,0.79,7.31,0.34,-0.12,-2.35,0.19,-0.04,0.05,3049,2019-03-25 16:59:38:865
0.8,0.79,7.31,0.34,-0.12,-2.35,0.19,-0.04,0.05,3054,2019-03-25 16:59:38:870
-0.1,3.5,11.45,0.34,-0.12,-2.35,0.19,-0.04,0.05,3059,2019-03-25 16:59:38:875
-0.1,3.5,11.45,-0.58,2.04,1.82,0.05,-0.06,0.02,3064,2019-03-25 16:59:38:880
-0.1,3.5,11.45,-0.58,2.04,1.82,0.05,-0.06,0.02,3069,2019-03-25 16:59:38:885
-0.1,3.5,11.45,-0.58,2.04,1.82,0.08,-0.04,-0.07,3074,2019-03-25 16:59:38:890
-0.15,2.79,11.51,-0.15,-0.43,-2.13,0.08,-0.04,-0.07,3079,2019-03-25 16:59:38:895
-0.15,2.79,11.51,-0.15,-0.43,-2.13,0.08,-0.04,-0.07,3084,2019-03-25 16:59:38:900
0.37,2.17,13.31,-0.14,-0.03,3.63,0.02,-0.06,-0.1,3089,2019-03-25 16:59:38:905
0.37,2.17,13.31,-0.14,-0.03,3.63,0.02,-0.06,-0.1,3094,2019-03-25 16:59:38:910
0.37,2.17,13.31,-0.14,-0.03,3.63,0.02,-0.06,-0.1,3099,2019-03-25 16:59:38:915
0.37,2.17,13.31,-0.14,-0.03,3.63,0.02,-0.06,-0.1,3104,2019-03-25 16:59:38:920
1.55,1.35,9.42,0.92,-0.97,-0.26,0.15,-0.06,-0.09,3109,2019-03-25 16:59:38:925
1.55,1.35,9.42,0.92,-0.97,-0.26,0.15,-0.06,-0.09,3114,2019-03-25 16:59:38:930
1.55,1.35,9.42,0.92,-0.97,-0.26,0.15,-0.06,-0.09,3119,2019-03-25 16:59:38:935
1.55,1.35,9.42,0.92,-0.97,-0.26,0.15,-0.06,-0.09,3124,2019-03-25 16:59:38:940
1.55,1.35,9.42,0.92,-0.97,-0.26,0.15,-0.06,-0.09,3129,2019-03-25 16:59:38:945
1.55,1.35,9.42,0.92,-0.97,-0.26,0.15,-0.06,-0.09,3134,2019-03-25 16:59:38:950
0.19,1.1,9.92,-0.3,-1.29,0.2,0.19,0.0,0.04,3141,2019-03-25 16:59:38:957
0.19,1.1,9.92,-0.3,-1.29,0.2,0.19,0.0,0.04,3144,2019-03-25 16:59:38:960
0.19,1.1,9.92,-0.3,-1.29,0.2,0.19,-0.08,0.18,3153,2019-03-25 16:59:38:969
0.19,1.1,9.92,-0.3,-1.29,0.2,0.19,-0.08,0.18,3153,2019-03-25 16:59:38:969
0.19,1.1,9.92,-0.3,-1.29,0.2,0.19,-0.08,0.18,3159,2019-03-25 16:59:38:975
0.19,1.1,9.92,-0.3,-1.29,0.2,0.19,-0.08,0.18,3164,2019-03-25 16:59:38:980
0.19,1.1,9.92,-0.3,-1.29,0.2,0.19,-0.08,0.18,3168,2019-03-25 16:59:38:984
0.19,1.1,9.92,-0.3,-1.29,0.2,0.19,-0.08,0.18,3174,2019-03-25 16:59:38:990
-1.83,1.39,7.86,-2.04,-0.96,-1.83,0.18,-0.1,0.18,3180,2019-03-25 16:59:38:996
-1.83,1.39,7.86,-2.04,-0.96,-1.83,0.18,-0.1,0.18,3187,2019-03-25 16:59:39:003
-1.83,1.39,7.86,-2.04,-0.96,-1.83,0.18,-0.1,0.18,3193,2019-03-25 16:59:39:009
-1.83,1.39,7.86,-2.04,-0.96,-1.83,0.18,-0.1,0.18,3194,2019-03-25 16:59:39:010
-1.6,-1.43,9.51,-2.04,-0.96,-1.83,0.07,-0.17,0.21,3199,2019-03-25 16:59:39:015
-1.6,-1.43,9.51,-1.62,-3.13,-0.09,0.07,-0.17,0.21,3204,2019-03-25 16:59:39:020
-1.6,-1.43,9.51,-1.62,-3.13,-0.09,0.07,-0.17,0.21,3210,2019-03-25 16:59:39:026
-1.6,-1.43,9.51,-1.62,-3.13,-0.09,0.07,-0.17,0.21,3216,2019-03-25 16:59:39:032
-1.6,-1.43,9.51,-1.62,-3.13,-0.09,0.07,-0.17,0.21,3218,2019-03-25 16:59:39:034
-0.09,-1.15,11.19,-0.18,-2.38,1.51,0.01,0.08,0.38,3224,2019-03-25 16:59:39:040
-0.09,-1.15,11.19,-0.18,-2.38,1.51,0.01,0.08,0.38,3229,2019-03-25 16:59:39:045
-0.09,-1.15,11.19,-0.18,-2.38,1.51,0.01,0.08,0.38,3239,2019-03-25 16:59:39:055
-0.09,-1.15,11.19,-0.18,-2.38,1.51,0.01,0.08,0.38,3240,2019-03-25 16:59:39:056
0.24,-0.18,8.9,0.23,-1.28,-0.91,0.12,0.11,0.39,3246,2019-03-25 16:59:39:062
0.24,-0.18,8.9,0.23,-1.28,-0.91,0.12,0.11,0.39,3249,2019-03-25 16:59:39:065
0.24,-0.18,8.9,0.23,-1.28,-0.91,0.12,0.11,0.39,3254,2019-03-25 16:59:39:070
0.24,-0.18,8.9,0.23,-1.28,-0.91,0.12,0.11,0.39,3259,2019-03-25 16:59:39:075
0.24,-0.18,8.9,0.23,-1.28,-0.91,0.12,0.11,0.39,3264,2019-03-25 16:59:39:080
0.24,-0.18,8.9,0.23,-1.28,-0.91,0.12,0.11,0.39,3268,2019-03-25 16:59:39:084
0.24,-0.18,8.9,0.23,-1.28,-0.91,0.12,0.11,0.39,3275,2019-03-25 16:59:39:091
0.24,-0.18,8.9,0.23,-1.28,-0.91,0.12,0.11,0.39,3279,2019-03-25 16:59:39:095
1.41,2.26,11.47,1.39,1.39,1.57,-0.1,0.03,0.27,3284,2019-03-25 16:59:39:100
1.41,2.26,11.47,1.39,1.39,1.57,-0.1,0.03,0.27,3289,2019-03-25 16:59:39:105
1.41,2.26,11.47,1.39,1.39,1.57,-0.1,0.03,0.27,3294,2019-03-25 16:59:39:110
1.41,2.26,11.47,1.39,1.39,1.57,-0.1,0.03,0.27,3299,2019-03-25 16:59:39:115
1.41,2.26,11.47,1.39,1.39,1.57,-0.1,0.03,0.27,3304,2019-03-25 16:59:39:120
2.22,3.26,8.96,1.85,2.33,-0.57,-0.13,0.06,0.11,3309,2019-03-25 16:59:39:125
2.22,3.26,8.96,1.85,2.33,-0.57,-0.13,0.06,0.11,3314,2019-03-25 16:59:39:130
2.22,3.26,8.96,1.85,2.33,-0.57,-0.13,0.06,0.11,3319,2019-03-25 16:59:39:135
2.22,3.26,8.96,1.85,2.33,-0.57,-0.13,0.06,0.11,3324,2019-03-25 16:59:39:140
1.12,0.92,8.52,0.62,0.0,-0.91,-0.16,0.04,0.05,3329,2019-03-25 16:59:39:145
1.12,0.92,8.52,0.62,0.0,-0.91,-0.16,0.04,0.05,3334,2019-03-25 16:59:39:150
1.12,0.92,8.52,0.62,0.0,-0.91,-0.16,0.04,0.05,3339,2019-03-25 16:59:39:155
1.12,0.92,8.52,0.62,0.0,-0.91,-0.16,0.04,0.05,3344,2019-03-25 16:59:39:160
0.04,0.24,13.39,-0.41,-0.52,3.79,-0.21,-0.03,0.03,3349,2019-03-25 16:59:39:165
0.04,0.24,13.39,-0.41,-0.52,3.79,-0.21,-0.03,0.03,3354,2019-03-25 16:59:39:170
0.04,0.24,13.39,-0.41,-0.52,3.79,-0.21,-0.03,0.03,3359,2019-03-25 16:59:39:175
0.04,0.24,13.39,-0.41,-0.52,3.79,-0.21,-0.03,0.03,3364,2019-03-25 16:59:39:180
0.04,0.24,13.39,-0.41,-0.52,3.79,-0.21,-0.03,0.03,3370,2019-03-25 16:59:39:186
0.04,0.24,13.39,-0.41,-0.52,3.79,-0.21,-0.03,0.03,3374,2019-03-25 16:59:39:190
0.04,0.24,13.39,-0.41,-0.52,3.79,-0.21,-0.03,0.03,3379,2019-03-25 16:59:39:195
0.04,0.24,13.39,-0.41,-0.52,3.79,-0.21,-0.03,0.03,3384,2019-03-25 16:59:39:200
0.54,-1.12,9.46,-0.04,-1.63,-0.28,-0.09,0.02,0.05,3389,2019-03-25 16:59:39:205
0.54,-1.12,9.46,-0.04,-1.63,-0.28,-0.09,0.02,0.05,3394,2019-03-25 16:59:39:210
0.54,-1.12,9.46,-0.04,-1.63,-0.28,-0.09,0.02,0.05,3399,2019-03-25 16:59:39:215
0.54,-1.12,9.46,-0.04,-1.63,-0.28,-0.09,0.02,0.05,3404,2019-03-25 16:59:39:220
1.7,-0.46,9.52,0.75,-1.14,-0.07,-0.11,0.0,0.09,3409,2019-03-25 16:59:39:225
1.7,-0.46,9.52,0.75,-1.14,-0.07,-0.11,0.0,0.09,3414,2019-03-25 16:59:39:230
1.7,-0.46,9.52,0.75,-1.14,-0.07,-0.11,0.0,0.09,3419,2019-03-25 16:59:39:235
1.7,-0.46,9.52,0.75,-1.14,-0.07,-0.11,0.0,0.09,3424,2019-03-25 16:59:39:240
0.12,-0.66,11.76,-0.86,-1.33,1.96,-0.18,-0.04,0.06,3429,2019-03-25 16:59:39:245
0.12,-0.66,11.76,-0.86,-1.33,1.96,-0.18,-0.04,0.06,3434,2019-03-25 16:59:39:250
0.12,-0.66,11.76,-0.86,-1.33,1.96,-0.18,-0.04,0.06,3439,2019-03-25 16:59:39:255
0.12,-0.66,11.76,-0.86,-1.33,1.96,-0.18,-0.04,0.06,3444,2019-03-25 16:59:39:260
1.1,-1.93,10.98,0.04,-2.29,0.86,-0.11,0.01,0.06,3449,2019-03-25 16:59:39:265
1.1,-1.93,10.98,0.04,-2.29,0.86,-0.11,0.01,0.06,3454,2019-03-25 16:59:39:270
1.1,-1.93,10.98,0.04,-2.29,0.86,-0.11,0.01,0.06,3462,2019-03-25 16:59:39:278
1.1,-1.93,10.98,0.04,-2.29,0.86,-0.11,0.01,0.06,3466,2019-03-25 16:59:39:282
1.1,-1.93,10.98,0.04,-2.29,0.86,-0.11,0.01,0.06,3469,2019-03-25 16:59:39:285
1.1,-1.93,10.98,0.04,-2.29,0.86,-0.11,0.01,0.06,3474,2019-03-25 16:59:39:290
1.1,-1.93,10.98,0.04,-2.29,0.86,-0.11,0.01,0.06,3478,2019-03-25 16:59:39:294
1.1,-1.93,10.98,0.04,-2.29,0.86,-0.11,0.01,0.06,3484,2019-03-25 16:59:39:300
1.82,-1.32,9.73,0.67,-1.33,-0.3,-0.08,0.02,0.11,3489,2019-03-25 16:59:39:305
1.82,-1.32,9.73,0.67,-1.33,-0.3,-0.08,0.02,0.11,3494,2019-03-25 16:59:39:310
1.82,-1.32,9.73,0.67,-1.33,-0.3,-0.08,0.02,0.11,3502,2019-03-25 16:59:39:318
1.82,-1.32,9.73,0.67,-1.33,-0.3,-0.08,0.02,0.11,3506,2019-03-25 16:59:39:322
1.39,0.05,9.36,0.33,0.28,-0.61,-0.09,0.0,0.09,3509,2019-03-25 16:59:39:325
1.39,0.05,9.36,0.33,0.28,-0.61,-0.09,0.0,0.09,3514,2019-03-25 16:59:39:330
-0.22,-0.11,9.36,-1.04,0.4,-0.66,-0.12,-0.04,0.05,3523,2019-03-25 16:59:39:339
-0.22,-0.11,9.36,-1.04,0.4,-0.66,-0.12,-0.04,0.05,3524,2019-03-25 16:59:39:340
-0.22,-0.11,9.36,-1.04,0.4,-0.66,-0.12,-0.04,0.05,3529,2019-03-25 16:59:39:345
-0.22,-0.11,9.36,-1.04,0.4,-0.66,-0.12,-0.04,0.05,3534,2019-03-25 16:59:39:350
-0.39,-1.91,8.73,-1.03,-1.06,-1.24,-0.15,-0.04,0.03,3539,2019-03-25 16:59:39:355
-0.39,-1.91,8.73,-1.03,-1.06,-1.24,-0.15,-0.04,0.03,3544,2019-03-25 16:59:39:360
-0.39,-1.91,8.73,-1.03,-1.06,-1.24,-0.15,-0.04,0.03,3549,2019-03-25 16:59:39:365
-0.39,-1.91,8.73,-1.03,-1.06,-1.24,-0.15,-0.04,0.03,3554,2019-03-25 16:59:39:370
0.88,0.46,8.92,0.23,1.36,-0.88,-0.21,-0.03,0.07,3561,2019-03-25 16:59:39:377
0.88,0.46,8.92,0.23,1.36,-0.88,-0.21,-0.03,0.07,3564,2019-03-25 16:59:39:380
0.88,0.46,8.92,0.23,1.36,-0.88,-0.21,-0.03,0.07,3569,2019-03-25 16:59:39:385
0.88,0.46,8.92,0.23,1.36,-0.88,-0.21,-0.03,0.07,3575,2019-03-25 16:59:39:391
1.85,5.43,7.92,0.97,5.78,-1.65,-0.16,-0.05,0.0,3581,2019-03-25 16:59:39:397
1.85,5.43,7.92,0.97,5.78,-1.65,-0.16,-0.05,0.0,3586,2019-03-25 16:59:39:402
1.85,5.43,7.92,0.97,5.78,-1.65,-0.16,-0.05,0.0,3589,2019-03-25 16:59:39:405
-2.74,1.94,8.18,-3.5,1.94,-1.31,-0.19,-0.11,-0.13,3594,2019-03-25 16:59:39:410
-2.74,1.94,8.18,-3.5,1.94,-1.31,-0.19,-0.11,-0.13,3599,2019-03-25 16:59:39:415
-2.74,1.94,8.18,-3.5,1.94,-1.31,-0.19,-0.11,-0.13,3604,2019-03-25 16:59:39:420
-2.74,1.94,8.18,-3.5,1.94,-1.31,-0.19,-0.11,-0.13,3609,2019-03-25 16:59:39:425
-2.74,1.94,8.18,-3.5,1.94,-1.31,-0.19,-0.11,-0.13,3614,2019-03-25 16:59:39:430
-0.24,1.31,8.38,-0.81,1.16,-1.11,-0.3,-0.09,0.01,3621,2019-03-25 16:59:39:437
-0.24,1.31,8.38,-0.81,1.16,-1.11,-0.3,-0.09,0.01,3624,2019-03-25 16:59:39:440
-0.24,1.31,8.38,-0.81,1.16,-1.11,-0.3,-0.09,0.01,3629,2019-03-25 16:59:39:445
-0.24,1.31,8.38,-0.81,1.16,-1.11,-0.3,-0.09,0.01,3634,2019-03-25 16:59:39:450
1.92,1.2,21.4,1.31,0.94,11.09,-0.25,-0.05,0.08,3639,2019-03-25 16:59:39:455
1.92,1.2,21.4,1.31,0.94,11.09,-0.25,-0.05,0.08,3644,2019-03-25 16:59:39:460
1.92,1.2,21.4,1.31,0.94,11.09,-0.25,-0.05,0.08,3649,2019-03-25 16:59:39:465
1.92,1.2,21.4,1.31,0.94,11.09,-0.25,-0.05,0.08,3654,2019-03-25 16:59:39:470
3.82,0.82,8.78,2.98,0.15,-1.88,0.42,0.23,0.04,3659,2019-03-25 16:59:39:475
3.82,0.82,8.78,2.98,0.15,-1.88,0.42,0.23,0.04,3665,2019-03-25 16:59:39:481
3.82,0.82,8.78,2.98,0.15,-1.88,0.42,0.23,0.04,3669,2019-03-25 16:59:39:485
3.82,0.82,8.78,2.98,0.15,-1.88,0.42,0.23,0.04,3674,2019-03-25 16:59:39:490
0.5,2.9,5.01,-0.29,1.81,-5.0,0.38,0.16,0.13,3680,2019-03-25 16:59:39:496
0.5,2.9,5.01,-0.29,1.81,-5.0,0.38,0.16,0.13,3684,2019-03-25 16:59:39:500
0.5,2.9,5.01,-0.29,1.81,-5.0,0.1,0.05,0.14,3689,2019-03-25 16:59:39:505
-1.56,5.04,8.5,-1.95,3.08,-1.77,0.1,0.05,0.14,3694,2019-03-25 16:59:39:510
-1.56,5.04,8.5,-1.95,3.08,-1.77,0.1,0.05,0.14,3699,2019-03-25 16:59:39:515
-1.56,5.04,8.5,-1.95,3.08,-1.77,0.1,0.05,0.14,3704,2019-03-25 16:59:39:520
-1.56,5.04,8.5,-1.95,3.08,-1.77,0.1,0.05,0.14,3709,2019-03-25 16:59:39:525
-0.74,3.49,8.06,-1.09,1.33,-2.14,0.16,0.08,0.01,3714,2019-03-25 16:59:39:530
-0.74,3.49,8.06,-1.09,1.33,-2.14,0.16,0.08,0.01,3718,2019-03-25 16:59:39:534
-0.74,3.49,8.06,-1.09,1.33,-2.14,0.16,0.08,0.01,3724,2019-03-25 16:59:39:540
-0.45,2.63,10.97,-0.76,-0.01,0.54,0.07,0.01,-0.01,3730,2019-03-25 16:59:39:546
-0.45,2.63,10.97,-0.76,-0.01,0.54,0.07,0.01,-0.01,3734,2019-03-25 16:59:39:550
-0.45,2.63,10.97,-0.76,-0.01,0.54,0.07,0.01,-0.01,3739,2019-03-25 16:59:39:555
-0.45,2.63,10.97,-0.76,-0.01,0.54,0.07,0.01,-0.01,3744,2019-03-25 16:59:39:560
-0.45,2.63,10.97,-0.76,-0.01,0.54,0.07,0.01,-0.01,3749,2019-03-25 16:59:39:565
2.31,1.01,8.07,1.86,-1.81,-2.31,0.12,0.07,0.0,3754,2019-03-25 16:59:39:570
2.31,1.01,8.07,1.86,-1.81,-2.31,0.12,0.07,0.0,3759,2019-03-25 16:59:39:575
2.31,1.01,8.07,1.86,-1.81,-2.31,0.12,0.07,0.0,3764,2019-03-25 16:59:39:580
2.31,1.01,8.07,1.86,-1.81,-2.31,0.12,0.07,0.0,3770,2019-03-25 16:59:39:586
2.31,1.01,8.07,1.86,-1.81,-2.31,0.12,0.07,0.0,3774,2019-03-25 16:59:39:590
1.88,2.03,9.05,1.48,-0.6,-1.43,0.1,0.01,0.08,3779,2019-03-25 16:59:39:595
1.88,2.03,9.05,1.48,-0.6,-1.43,0.1,0.01,0.08,3785,2019-03-25 16:59:39:601
0.32,2.69,8.26,0.33,0.67,-4.3,0.1,0.02,0.14,3789,2019-03-25 16:59:39:605
0.32,2.69,8.26,0.33,0.67,-4.3,0.1,0.02,0.14,3794,2019-03-25 16:59:39:610
0.32,2.69,8.26,0.33,0.67,-4.3,0.1,0.02,0.14,3799,2019-03-25 16:59:39:615
0.32,2.69,8.26,0.33,0.67,-4.3,0.1,0.02,0.14,3805,2019-03-25 16:59:39:621
0.32,2.69,8.26,0.33,0.67,-4.3,0.1,0.02,0.14,3808,2019-03-25 16:59:39:624
0.02,2.14,10.4,-0.73,-0.52,0.08,-0.01,0.03,0.13,3814,2019-03-25 16:59:39:630
0.02,2.14,10.4,-0.73,-0.52,0.08,-0.01,0.03,0.13,3820,2019-03-25 16:59:39:636
0.02,2.14,10.4,-0.73,-0.52,0.08,-0.01,0.03,0.13,3824,2019-03-25 16:59:39:640
0.02,2.14,10.4,-0.73,-0.52,0.08,-0.01,0.03,0.13,3829,2019-03-25 16:59:39:645
1.65,1.28,13.28,0.84,-1.44,3.63,-0.1,0.1,0.13,3834,2019-03-25 16:59:39:650
1.65,1.28,13.28,0.84,-1.44,3.63,-0.1,0.1,0.13,3839,2019-03-25 16:59:39:655
1.65,1.28,13.28,0.84,-1.44,3.63,-0.1,0.1,0.13,3844,2019-03-25 16:59:39:660
1.65,1.28,13.28,0.84,-1.44,3.63,-0.1,0.1,0.13,3849,2019-03-25 16:59:39:665
-1.08,-0.92,6.73,-1.53,-3.45,-2.32,0.02,0.09,0.0,3855,2019-03-25 16:59:39:671
-1.08,-0.92,6.73,-1.53,-3.45,-2.32,0.02,0.09,0.0,3859,2019-03-25 16:59:39:675
-1.08,-0.92,6.73,-1.53,-3.45,-2.32,0.02,0.09,0.0,3864,2019-03-25 16:59:39:680
-1.08,-0.92,6.73,-1.53,-3.45,-2.32,0.02,0.09,0.0,3871,2019-03-25 16:59:39:687
-1.55,-0.8,8.28,-1.66,-3.0,-1.15,-0.11,0.13,0.11,3874,2019-03-25 16:59:39:690
-1.55,-0.8,8.28,-1.66,-3.0,-1.15,-0.11,0.13,0.11,3879,2019-03-25 16:59:39:695
-1.55,-0.8,8.28,-1.66,-3.0,-1.15,-0.11,0.13,0.11,3884,2019-03-25 16:59:39:700
-1.55,-0.8,8.28,-1.66,-3.0,-1.15,-0.11,0.13,0.11,3889,2019-03-25 16:59:39:705
-2.04,1.57,11.11,-2.1,-0.08,1.85,-0.29,0.1,0.22,3894,2019-03-25 16:59:39:710
-2.04,1.57,11.11,-2.1,-0.08,1.85,-0.29,0.1,0.22,3899,2019-03-25 16:59:39:715
-2.04,1.57,11.11,-2.1,-0.08,1.85,-0.29,0.1,0.22,3905,2019-03-25 16:59:39:721
-2.04,1.57,11.11,-2.1,-0.08,1.85,-0.29,0.1,0.22,3909,2019-03-25 16:59:39:725
0.12,0.59,10.58,0.0,-0.7,0.98,-0.14,0.06,0.26,3914,2019-03-25 16:59:39:730
0.12,0.59,10.58,0.0,-0.7,0.98,-0.14,0.06,0.26,3919,2019-03-25 16:59:39:735
0.12,0.59,10.58,0.0,-0.7,0.98,-0.14,0.06,0.26,3924,2019-03-25 16:59:39:740
0.12,0.59,10.58,0.0,-0.7,0.98,-0.14,0.06,0.26,3929,2019-03-25 16:59:39:745
0.37,0.41,12.64,0.18,-0.51,2.93,-0.05,0.02,0.27,3934,2019-03-25 16:59:39:750
0.37,0.41,12.64,0.18,-0.51,2.93,-0.05,0.02,0.27,3939,2019-03-25 16:59:39:755
0.37,0.41,12.64,0.18,-0.51,2.93,-0.05,0.02,0.27,3944,2019-03-25 16:59:39:760
0.37,0.41,12.64,0.18,-0.51,2.93,-0.05,0.02,0.27,3949,2019-03-25 16:59:39:765
2.04,0.06,10.24,1.84,-0.72,0.35,0.1,0.04,0.32,3954,2019-03-25 16:59:39:770
2.04,0.06,10.24,1.84,-0.72,0.35,0.1,0.04,0.32,3959,2019-03-25 16:59:39:775
2.04,0.06,10.24,1.84,-0.72,0.35,0.1,0.04,0.32,3964,2019-03-25 16:59:39:780
2.04,0.06,10.24,1.84,-0.72,0.35,0.1,0.04,0.32,3969,2019-03-25 16:59:39:785
2.04,0.06,10.24,1.84,-0.72,0.35,0.1,0.04,0.32,3974,2019-03-25 16:59:39:790
-0.95,1.18,8.23,-0.89,0.39,-1.69,0.24,-0.06,0.26,3979,2019-03-25 16:59:39:795
-0.95,1.18,8.23,-0.89,0.39,-1.69,0.24,-0.06,0.26,3985,2019-03-25 16:59:39:801
-0.95,1.18,8.23,-0.89,0.39,-1.69,0.24,-0.06,0.26,3992,2019-03-25 16:59:39:808
0.08,1.78,8.24,0.25,1.11,-1.77,0.22,-0.08,0.2,3994,2019-03-25 16:59:39:810
0.08,1.78,8.24,0.25,1.11,-1.77,0.22,-0.08,0.2,3999,2019-03-25 16:59:39:815
0.08,1.78,8.24,0.25,1.11,-1.77,0.22,-0.08,0.2,4004,2019-03-25 16:59:39:820
0.08,1.78,8.24,0.25,1.11,-1.77,0.22,-0.08,0.2,4009,2019-03-25 16:59:39:825
1.33,-0.7,10.99,1.4,-1.16,0.8,0.02,-0.07,0.12,4014,2019-03-25 16:59:39:830
1.33,-0.7,10.99,1.4,-1.16,0.8,0.02,-0.07,0.12,4019,2019-03-25 16:59:39:835
1.33,-0.7,10.99,1.4,-1.16,0.8,0.02,-0.07,0.12,4024,2019-03-25 16:59:39:840
1.33,-0.7,10.99,1.4,-1.16,0.8,0.02,-0.07,0.12,4029,2019-03-25 16:59:39:845
1.33,-0.7,10.99,1.4,-1.16,0.8,0.02,-0.07,0.12,4034,2019-03-25 16:59:39:850
2.98,1.74,8.87,2.92,1.37,-1.01,-0.24,-0.02,0.14,4039,2019-03-25 16:59:39:855
2.98,1.74,8.87,2.92,1.37,-1.01,-0.24,-0.02,0.14,4045,2019-03-25 16:59:39:861
2.98,1.74,8.87,2.92,1.37,-1.01,-0.24,-0.02,0.14,4050,2019-03-25 16:59:39:866
1.95,1.4,8.59,2.92,1.37,-1.01,-0.18,0.01,0.04,4054,2019-03-25 16:59:39:870
1.95,1.4,8.59,1.67,0.88,-1.17,-0.18,0.01,0.04,4059,2019-03-25 16:59:39:875
1.95,1.4,8.59,1.67,0.88,-1.17,-0.18,0.01,0.04,4064,2019-03-25 16:59:39:880
1.95,1.4,8.59,1.67,0.88,-1.17,-0.18,0.01,0.04,4069,2019-03-25 16:59:39:885
1.95,1.4,8.59,1.67,0.88,-1.17,-0.18,0.01,0.04,4074,2019-03-25 16:59:39:890
1.87,1.12,10.56,1.25,0.37,0.45,-0.22,0.02,0.01,4079,2019-03-25 16:59:39:895
1.87,1.12,10.56,1.25,0.37,0.45,-0.22,0.02,0.01,4084,2019-03-25 16:59:39:900
1.87,1.12,10.56,1.25,0.37,0.45,-0.22,0.02,0.01,4089,2019-03-25 16:59:39:905
0.27,0.88,9.26,-0.56,0.08,-0.81,-0.13,0.0,-0.09,4094,2019-03-25 16:59:39:910
0.27,0.88,9.26,-0.56,0.08,-0.81,-0.13,0.0,-0.09,4101,2019-03-25 16:59:39:917
0.27,0.88,9.26,-0.56,0.08,-0.81,-0.13,0.0,-0.09,4104,2019-03-25 16:59:39:920
-0.25,0.67,9.63,-0.56,0.08,-0.81,-0.13,0.0,-0.09,4109,2019-03-25 16:59:39:925
-0.25,0.67,9.63,-0.56,0.08,-0.81,-0.13,0.0,-0.09,4114,2019-03-25 16:59:39:930
-0.25,0.67,9.63,-1.15,-0.08,-0.2,-0.09,0.0,-0.12,4119,2019-03-25 16:59:39:935
-0.25,0.67,9.63,-1.15,-0.08,-0.2,-0.09,0.0,-0.12,4124,2019-03-25 16:59:39:940
1.6,-0.26,10.84,-1.15,-0.08,-0.2,-0.09,0.0,-0.12,4129,2019-03-25 16:59:39:945
1.6,-0.26,10.84,-1.15,-0.08,-0.2,-0.09,0.0,-0.12,4134,2019-03-25 16:59:39:950
1.6,-0.26,10.84,0.64,-1.0,1.13,-0.16,0.08,-0.1,4139,2019-03-25 16:59:39:955
1.6,-0.26,10.84,0.64,-1.0,1.13,-0.16,0.08,-0.1,4144,2019-03-25 16:59:39:960
1.6,-0.26,10.84,0.64,-1.0,1.13,-0.16,0.08,-0.1,4149,2019-03-25 16:59:39:965
1.6,-0.26,10.84,0.64,-1.0,1.13,-0.16,0.08,-0.1,4154,2019-03-25 16:59:39:970
1.24,-0.86,10.58,0.3,-1.56,0.86,-0.03,0.09,-0.04,4159,2019-03-25 16:59:39:975
1.24,-0.86,10.58,0.3,-1.56,0.86,-0.03,0.09,-0.04,4164,2019-03-25 16:59:39:980
1.24,-0.86,10.58,0.3,-1.56,0.86,-0.03,0.09,-0.04,4169,2019-03-25 16:59:39:985
1.24,-0.86,10.58,0.3,-1.56,0.86,-0.03,0.09,-0.04,4173,2019-03-25 16:59:39:989
-0.91,-1.82,10.56,-1.89,-2.24,0.87,0.06,0.04,-0.03,4181,2019-03-25 16:59:39:997
-0.91,-1.82,10.56,-1.89,-2.24,0.87,0.06,0.04,-0.03,4185,2019-03-25 16:59:40:001
-0.91,-1.82,10.56,-1.89,-2.24,0.87,0.06,0.04,-0.03,4189,2019-03-25 16:59:40:005
-0.91,-1.82,10.56,-1.89,-2.24,0.87,0.06,0.04,-0.03,4194,2019-03-25 16:59:40:010
0.28,-1.97,10.84,-0.72,-2.08,0.77,-0.04,0.11,0.05,4199,2019-03-25 16:59:40:015
0.28,-1.97,10.84,-0.72,-2.08,0.77,-0.04,0.11,0.05,4204,2019-03-25 16:59:40:020
0.28,-1.97,10.84,-0.72,-2.08,0.77,0.01,0.07,0.05,4210,2019-03-25 16:59:40:026
0.28,-1.97,10.84,-0.72,-2.08,0.77,0.01,0.07,0.05,4215,2019-03-25 16:59:40:031
0.51,0.96,9.48,-0.75,0.86,0.31,0.01,0.07,0.05,4220,2019-03-25 16:59:40:036
0.51,0.96,9.48,-0.75,0.86,0.31,0.01,0.07,0.05,4224,2019-03-25 16:59:40:040
0.43,0.09,7.31,-0.75,0.86,0.31,0.11,0.06,0.02,4229,2019-03-25 16:59:40:045
0.43,0.09,7.31,-0.75,0.86,0.31,0.11,0.06,0.02,4234,2019-03-25 16:59:40:050
0.43,0.09,7.31,-0.3,-0.02,-2.56,0.11,0.06,0.02,4239,2019-03-25 16:59:40:055
0.43,0.09,7.31,-0.3,-0.02,-2.56,0.11,0.06,0.02,4244,2019-03-25 16:59:40:060
0.91,-1.01,10.64,-0.3,-0.02,-2.56,-0.06,0.08,0.04,4249,2019-03-25 16:59:40:065
0.91,-1.01,10.64,-0.3,-0.02,-2.56,-0.06,0.08,0.04,4254,2019-03-25 16:59:40:070
0.91,-1.01,10.64,-0.26,-0.78,1.8,-0.06,0.08,0.04,4259,2019-03-25 16:59:40:075
0.91,-1.01,10.64,-0.26,-0.78,1.8,-0.06,0.08,0.04,4263,2019-03-25 16:59:40:079
0.94,-2.12,9.42,0.47,-1.73,-0.58,-0.03,0.08,0.09,4269,2019-03-25 16:59:40:085
0.94,-2.12,9.42,0.47,-1.73,-0.58,-0.03,0.08,0.09,4274,2019-03-25 16:59:40:090
0.94,-2.12,9.42,0.47,-1.73,-0.58,-0.03,0.08,0.09,4279,2019-03-25 16:59:40:095
0.94,-2.12,9.42,0.47,-1.73,-0.58,-0.03,0.08,0.09,4284,2019-03-25 16:59:40:100
-0.43,-3.44,8.73,0.47,-1.73,-0.58,-0.08,0.06,0.13,4289,2019-03-25 16:59:40:105
-0.43,-3.44,8.73,-0.82,-2.56,-1.05,-0.08,0.06,0.13,4294,2019-03-25 16:59:40:110
-0.43,-3.44,8.73,-0.82,-2.56,-1.05,-0.08,0.06,0.13,4299,2019-03-25 16:59:40:115
-0.43,-3.44,8.73,-0.82,-2.56,-1.05,-0.08,0.06,0.13,4304,2019-03-25 16:59:40:120
5.9,8.22,9.9,5.15,8.73,-0.03,-0.15,0.02,0.17,4309,2019-03-25 16:59:40:125
5.9,8.22,9.9,5.15,8.73,-0.03,-0.15,0.02,0.17,4314,2019-03-25 16:59:40:130
5.9,8.22,9.9,5.15,8.73,-0.03,-0.15,0.02,0.17,4319,2019-03-25 16:59:40:135
5.9,8.22,9.9,5.15,8.73,-0.03,-0.15,0.02,0.17,4324,2019-03-25 16:59:40:140
5.9,8.22,9.9,5.15,8.73,-0.03,-0.15,0.02,0.17,4329,2019-03-25 16:59:40:145
5.9,8.22,9.9,5.15,8.73,-0.03,-0.15,0.02,0.17,4335,2019-03-25 16:59:40:151
5.9,8.22,9.9,5.15,8.73,-0.03,-0.15,0.02,0.17,4338,2019-03-25 16:59:40:154
2.93,1.37,7.15,1.8,1.5,-2.42,0.0,0.02,-0.1,4344,2019-03-25 16:59:40:160
2.93,1.37,7.15,1.8,1.5,-2.42,0.0,0.02,-0.1,4349,2019-03-25 16:59:40:165
2.93,1.37,7.15,1.8,1.5,-2.42,0.0,0.02,-0.1,4354,2019-03-25 16:59:40:170
0.99,3.76,11.45,-0.1,3.43,1.77,-0.25,-0.01,-0.36,4359,2019-03-25 16:59:40:175
0.99,3.76,11.45,-0.1,3.43,1.77,-0.25,-0.01,-0.36,4364,2019-03-25 16:59:40:180
0.99,3.76,11.45,-0.1,3.43,1.77,-0.14,-0.03,-0.58,4369,2019-03-25 16:59:40:185
0.99,3.76,11.45,-0.1,3.43,1.77,-0.14,-0.03,-0.58,4374,2019-03-25 16:59:40:190
0.99,3.76,11.45,-0.1,3.43,1.77,-0.14,-0.03,-0.58,4379,2019-03-25 16:59:40:195
0.99,3.76,11.45,-0.1,3.43,1.77,-0.14,-0.03,-0.58,4384,2019-03-25 16:59:40:200
1.51,0.8,10.04,0.32,-0.13,0.3,-0.11,-0.03,-0.55,4389,2019-03-25 16:59:40:205
1.51,0.8,10.04,0.32,-0.13,0.3,-0.11,-0.03,-0.55,4393,2019-03-25 16:59:40:209
1.51,0.8,10.04,0.32,-0.13,0.3,-0.11,-0.03,-0.55,4399,2019-03-25 16:59:40:215
1.51,0.8,10.04,0.32,-0.13,0.3,-0.11,-0.03,-0.55,4405,2019-03-25 16:59:40:221
2.0,0.06,10.89,0.65,-0.9,1.23,-0.04,-0.02,-0.53,4410,2019-03-25 16:59:40:226
2.0,0.06,10.89,0.65,-0.9,1.23,-0.04,-0.02,-0.53,4413,2019-03-25 16:59:40:229
2.0,0.06,10.89,0.65,-0.9,1.23,-0.04,-0.02,-0.53,4419,2019-03-25 16:59:40:235
2.0,0.06,10.89,0.65,-0.9,1.23,-0.04,-0.02,-0.53,4424,2019-03-25 16:59:40:240
0.76,1.92,11.11,-0.61,0.73,1.1,-0.05,0.09,-0.44,4429,2019-03-25 16:59:40:245
0.76,1.92,11.11,-0.61,0.73,1.1,-0.05,0.09,-0.44,4434,2019-03-25 16:59:40:250
0.76,1.92,11.11,-0.61,0.73,1.1,-0.05,0.09,-0.44,4439,2019-03-25 16:59:40:255
0.76,1.92,11.11,-0.61,0.73,1.1,-0.05,0.09,-0.44,4444,2019-03-25 16:59:40:260
1.95,1.51,9.78,0.48,0.06,-0.42,0.14,-0.07,-0.6,4449,2019-03-25 16:59:40:265
1.95,1.51,9.78,0.48,0.06,-0.42,0.14,-0.07,-0.6,4454,2019-03-25 16:59:40:270
1.95,1.51,9.78,0.48,0.06,-0.42,0.14,-0.07,-0.6,4459,2019-03-25 16:59:40:275
1.95,1.51,9.78,0.48,0.06,-0.42,0.14,-0.07,-0.6,4464,2019-03-25 16:59:40:280
1.95,1.51,9.78,0.48,0.06,-0.42,0.14,-0.07,-0.6,4469,2019-03-25 16:59:40:285
1.95,1.51,9.78,0.48,0.06,-0.42,0.14,-0.07,-0.6,4474,2019-03-25 16:59:40:290
-6.09,-3.95,11.81,-7.16,-5.45,1.47,0.17,0.07,-0.56,4479,2019-03-25 16:59:40:295
-6.09,-3.95,11.81,-7.16,-5.45,1.47,0.17,0.07,-0.56,4486,2019-03-25 16:59:40:302
-6.09,-3.95,11.81,-7.16,-5.45,1.47,0.18,0.22,-0.39,4489,2019-03-25 16:59:40:305
-6.09,-3.95,11.81,-7.16,-5.45,1.47,0.18,0.22,-0.39,4495,2019-03-25 16:59:40:311
-6.09,-3.95,11.81,-7.16,-5.45,1.47,0.18,0.22,-0.39,4499,2019-03-25 16:59:40:315
-6.09,-3.95,11.81,-7.16,-5.45,1.47,0.18,0.22,-0.39,4504,2019-03-25 16:59:40:320
1.6,-2.18,14.32,1.05,-3.16,4.17,0.04,-0.03,-0.27,4509,2019-03-25 16:59:40:325
1.6,-2.18,14.32,1.05,-3.16,4.17,0.04,-0.03,-0.27,4514,2019-03-25 16:59:40:330
1.6,-2.18,14.32,1.05,-3.16,4.17,0.04,-0.03,-0.27,4519,2019-03-25 16:59:40:335
1.6,-2.18,14.32,1.05,-3.16,4.17,0.04,-0.03,-0.27,4523,2019-03-25 16:59:40:339
1.6,-2.18,14.32,1.05,-3.16,4.17,0.04,-0.03,-0.27,4528,2019-03-25 16:59:40:344
-1.64,0.72,9.33,-1.63,0.06,-1.01,0.13,-0.22,-0.18,4535,2019-03-25 16:59:40:351
-1.64,0.72,9.33,-1.63,0.06,-1.01,0.13,-0.22,-0.18,4539,2019-03-25 16:59:40:355
-1.64,0.72,9.33,-1.63,0.06,-1.01,0.13,-0.22,-0.18,4544,2019-03-25 16:59:40:360
-2.37,1.16,7.14,-2.12,0.86,-2.61,0.19,0.18,0.0,4550,2019-03-25 16:59:40:366
-2.37,1.16,7.14,-2.12,0.86,-2.61,0.19,0.18,0.0,4555,2019-03-25 16:59:40:371
-2.37,1.16,7.14,-2.12,0.86,-2.61,0.19,0.18,0.0,4559,2019-03-25 16:59:40:375
-2.37,1.16,7.14,-2.12,0.86,-2.61,0.19,0.18,0.0,4564,2019-03-25 16:59:40:380
-2.37,1.16,7.14,-2.12,0.86,-2.61,0.19,0.18,0.0,4569,2019-03-25 16:59:40:385
-2.37,1.16,7.14,-2.12,0.86,-2.61,0.19,0.18,0.0,4575,2019-03-25 16:59:40:391
-2.37,1.16,7.14,-2.12,0.86,-2.61,0.19,0.18,0.0,4580,2019-03-25 16:59:40:396
-2.33,-0.23,3.08,-1.78,-0.26,-5.81,-0.06,0.06,0.03,4585,2019-03-25 16:59:40:401
-2.33,-0.23,3.08,-1.78,-0.26,-5.81,-0.06,0.06,0.03,4590,2019-03-25 16:59:40:406
-2.33,-0.23,3.08,-1.78,-0.26,-5.81,-0.06,0.06,0.03,4596,2019-03-25 16:59:40:412
-2.33,-0.23,3.08,-1.78,-0.26,-5.81,-0.06,0.06,0.03,4599,2019-03-25 16:59:40:415
-2.33,-0.23,3.08,-1.78,-0.26,-5.81,-0.06,0.06,0.03,4604,2019-03-25 16:59:40:420
-2.33,-0.23,3.08,-1.78,-0.26,-5.81,-0.06,0.06,0.03,4608,2019-03-25 16:59:40:424
-2.33,-0.23,3.08,-1.78,-0.26,-5.81,-0.06,0.06,0.03,4615,2019-03-25 16:59:40:431
0.83,1.13,15.57,1.53,1.07,6.5,-0.51,0.0,0.07,4619,2019-03-25 16:59:40:435
0.83,1.13,15.57,1.53,1.07,6.5,-0.51,0.0,0.07,4624,2019-03-25 16:59:40:440
0.83,1.13,15.57,1.53,1.07,6.5,-0.51,0.0,0.07,4629,2019-03-25 16:59:40:445
0.83,1.13,15.57,1.53,1.07,6.5,-0.51,0.0,0.07,4634,2019-03-25 16:59:40:450
0.83,1.13,15.57,1.53,1.07,6.5,-0.51,0.0,0.07,4639,2019-03-25 16:59:40:455
0.47,-0.58,14.97,1.22,-0.25,5.56,-0.21,-0.03,0.06,4644,2019-03-25 16:59:40:460
0.47,-0.58,14.97,1.22,-0.25,5.56,-0.21,-0.03,0.06,4649,2019-03-25 16:59:40:465
0.47,-0.58,14.97,1.22,-0.25,5.56,-0.21,-0.03,0.06,4654,2019-03-25 16:59:40:470
0.47,-0.58,14.97,1.22,-0.25,5.56,-0.21,-0.03,0.06,4661,2019-03-25 16:59:40:477
1.69,-0.24,9.5,1.22,-0.25,5.56,0.09,0.09,0.14,4664,2019-03-25 16:59:40:480
1.69,-0.24,9.5,2.41,0.3,0.2,0.09,0.09,0.14,4669,2019-03-25 16:59:40:485
1.69,-0.24,9.5,2.41,0.3,0.2,0.09,0.09,0.14,4674,2019-03-25 16:59:40:490
1.69,-0.24,9.5,2.41,0.3,0.2,0.09,0.09,0.14,4679,2019-03-25 16:59:40:495
2.81,2.14,8.98,3.01,2.3,-0.08,0.16,0.06,0.19,4684,2019-03-25 16:59:40:500
2.81,2.14,8.98,3.01,2.3,-0.08,0.16,0.06,0.19,4689,2019-03-25 16:59:40:505
2.81,2.14,8.98,3.01,2.3,-0.08,0.04,0.06,0.04,4695,2019-03-25 16:59:40:511
2.81,2.14,8.98,3.01,2.3,-0.08,0.04,0.06,0.04,4699,2019-03-25 16:59:40:515
2.81,2.14,8.98,3.01,2.3,-0.08,0.04,0.06,0.04,4704,2019-03-25 16:59:40:520
2.81,2.14,8.98,3.01,2.3,-0.08,0.04,0.06,0.04,4709,2019-03-25 16:59:40:525
2.81,2.14,8.98,3.01,2.3,-0.08,0.04,0.06,0.04,4714,2019-03-25 16:59:40:530
2.81,2.14,8.98,3.01,2.3,-0.08,0.04,0.06,0.04,4719,2019-03-25 16:59:40:535
3.04,3.33,8.07,2.59,2.28,-0.95,0.0,0.04,-0.05,4724,2019-03-25 16:59:40:540
3.04,3.33,8.07,2.59,2.28,-0.95,0.0,0.04,-0.05,4729,2019-03-25 16:59:40:545
3.04,3.33,8.07,2.59,2.28,-0.95,0.0,0.04,-0.05,4734,2019-03-25 16:59:40:550
3.04,3.33,8.07,2.59,2.28,-0.95,0.0,0.04,-0.05,4739,2019-03-25 16:59:40:555
3.04,3.33,8.07,2.59,2.28,-0.95,0.0,0.04,-0.05,4744,2019-03-25 16:59:40:560
3.0,1.86,11.25,1.74,0.38,1.71,-0.12,-0.01,-0.4,4749,2019-03-25 16:59:40:565
3.0,1.86,11.25,1.74,0.38,1.71,-0.12,-0.01,-0.4,4754,2019-03-25 16:59:40:570
3.0,1.86,11.25,1.74,0.38,1.71,-0.12,-0.01,-0.4,4759,2019-03-25 16:59:40:575
3.0,1.86,11.25,1.74,0.38,1.71,-0.12,-0.01,-0.4,4764,2019-03-25 16:59:40:580
0.54,-0.32,11.9,-1.11,-1.87,1.28,-0.09,-0.02,-0.54,4769,2019-03-25 16:59:40:585
0.54,-0.32,11.9,-1.11,-1.87,1.28,-0.09,-0.02,-0.54,4774,2019-03-25 16:59:40:590
0.54,-0.32,11.9,-1.11,-1.87,1.28,-0.09,-0.02,-0.54,4779,2019-03-25 16:59:40:595
0.54,-0.32,11.9,-1.11,-1.87,1.28,-0.09,-0.02,-0.54,4784,2019-03-25 16:59:40:600
1.11,-1.61,11.13,-0.75,-2.84,0.1,-0.04,0.03,-0.58,4789,2019-03-25 16:59:40:605
1.11,-1.61,11.13,-0.75,-2.84,0.1,-0.04,0.03,-0.58,4794,2019-03-25 16:59:40:610
1.11,-1.61,11.13,-0.75,-2.84,0.1,-0.04,0.03,-0.58,4799,2019-03-25 16:59:40:615
1.11,-1.61,11.13,-0.75,-2.84,0.1,-0.04,0.03,-0.58,4804,2019-03-25 16:59:40:620
1.11,-1.61,11.13,-0.75,-2.84,0.1,-0.04,0.03,-0.58,4809,2019-03-25 16:59:40:625
0.71,-0.16,9.68,-1.01,-1.21,-0.89,-0.06,0.02,-0.53,4814,2019-03-25 16:59:40:630
0.71,-0.16,9.68,-1.01,-1.21,-0.89,-0.06,0.02,-0.53,4819,2019-03-25 16:59:40:635
0.71,-0.16,9.68,-1.01,-1.21,-0.89,-0.06,0.02,-0.53,4824,2019-03-25 16:59:40:640
-0.5,0.54,10.64,-1.01,-1.21,-0.89,-0.07,0.0,-0.5,4829,2019-03-25 16:59:40:645
-0.5,0.54,10.64,-2.23,-0.56,0.58,-0.07,0.0,-0.5,4834,2019-03-25 16:59:40:650
-0.5,0.54,10.64,-2.23,-0.56,0.58,-0.07,0.0,-0.5,4839,2019-03-25 16:59:40:655
-0.5,0.54,10.64,-2.23,-0.56,0.58,-0.07,0.0,-0.5,4844,2019-03-25 16:59:40:660
-0.5,0.54,10.64,-2.23,-0.56,0.58,-0.07,0.0,-0.5,4849,2019-03-25 16:59:40:665
-0.78,-1.37,9.07,-2.22,-2.46,-0.95,-0.03,0.01,-0.48,4858,2019-03-25 16:59:40:674
-0.78,-1.37,9.07,-2.22,-2.46,-0.95,-0.03,0.01,-0.48,4859,2019-03-25 16:59:40:675
-0.78,-1.37,9.07,-2.22,-2.46,-0.95,-0.03,0.01,-0.48,4864,2019-03-25 16:59:40:680
-0.78,-1.37,9.07,-2.22,-2.46,-0.95,-0.03,0.01,-0.48,4869,2019-03-25 16:59:40:685
-0.78,-1.37,9.07,-2.22,-2.46,-0.95,-0.03,0.01,-0.48,4874,2019-03-25 16:59:40:690
-1.11,-3.12,8.86,-2.22,-2.46,-0.95,-0.12,0.03,-0.42,4880,2019-03-25 16:59:40:696
-1.11,-3.12,8.86,-2.22,-2.46,-0.95,-0.12,0.03,-0.42,4884,2019-03-25 16:59:40:700
-1.11,-3.12,8.86,-2.27,-3.76,-1.04,-0.12,0.03,-0.42,4889,2019-03-25 16:59:40:705
0.23,-1.44,9.05,-2.27,-3.76,-1.04,-0.24,0.08,-0.3,4895,2019-03-25 16:59:40:711
0.23,-1.44,9.05,-2.27,-3.76,-1.04,-0.24,0.08,-0.3,4899,2019-03-25 16:59:40:715
0.23,-1.44,9.05,-2.27,-3.76,-1.04,-0.24,0.08,-0.3,4904,2019-03-25 16:59:40:720
0.23,-1.44,9.05,-2.27,-3.76,-1.04,-0.24,0.08,-0.3,4910,2019-03-25 16:59:40:726
0.23,-1.44,9.05,-2.27,-3.76,-1.04,-0.24,0.08,-0.3,4915,2019-03-25 16:59:40:731
1.14,-0.9,8.02,0.4,-0.47,-2.05,-0.22,0.03,-0.27,4919,2019-03-25 16:59:40:735
1.14,-0.9,8.02,0.4,-0.47,-2.05,-0.22,0.03,-0.27,4925,2019-03-25 16:59:40:741
1.14,-0.9,8.02,0.4,-0.47,-2.05,-0.13,-0.1,-0.3,4929,2019-03-25 16:59:40:745
1.14,-0.9,8.02,-1.87,0.61,-0.2,-0.13,-0.1,-0.3,4934,2019-03-25 16:59:40:750
1.14,-0.9,8.02,-1.87,0.61,-0.2,-0.13,-0.1,-0.3,4939,2019-03-25 16:59:40:755
1.14,-0.9,8.02,-1.87,0.61,-0.2,-0.13,-0.1,-0.3,4944,2019-03-25 16:59:40:760
1.14,-0.9,8.02,-1.87,0.61,-0.2,-0.13,-0.1,-0.3,4949,2019-03-25 16:59:40:765
1.14,-0.9,8.02,-1.87,0.61,-0.2,-0.13,-0.1,-0.3,4954,2019-03-25 16:59:40:770
-1.99,2.17,11.98,-1.96,3.12,1.82,-0.01,-0.03,-0.19,4959,2019-03-25 16:59:40:775
-1.99,2.17,11.98,-1.96,3.12,1.82,-0.01,-0.03,-0.19,4964,2019-03-25 16:59:40:780
-1.99,2.17,11.98,-1.96,3.12,1.82,-0.01,-0.03,-0.19,4970,2019-03-25 16:59:40:786
-1.99,2.17,11.98,-1.96,3.12,1.82,-0.01,-0.03,-0.19,4974,2019-03-25 16:59:40:790
1.41,6.34,7.42,1.46,6.75,-2.34,0.25,-0.07,-0.14,4979,2019-03-25 16:59:40:795
1.41,6.34,7.42,1.46,6.75,-2.34,0.25,-0.07,-0.14,4984,2019-03-25 16:59:40:800
1.41,6.34,7.42,1.46,6.75,-2.34,0.45,-0.08,-0.16,4989,2019-03-25 16:59:40:805
1.41,6.34,7.42,0.03,-0.33,2.77,0.45,-0.08,-0.16,4994,2019-03-25 16:59:40:810
1.41,6.34,7.42,0.03,-0.33,2.77,0.45,-0.08,-0.16,5000,2019-03-25 16:59:40:816
1.41,6.34,7.42,0.03,-0.33,2.77,0.45,-0.08,-0.16,5003,2019-03-25 16:59:40:819
-1.23,-1.33,16.05,-1.04,-1.52,5.91,0.0,0.04,-0.17,5009,2019-03-25 16:59:40:825
-1.23,-1.33,16.05,-1.04,-1.52,5.91,0.0,0.04,-0.17,5015,2019-03-25 16:59:40:831
-1.23,-1.33,16.05,-1.04,-1.52,5.91,0.0,0.04,-0.17,5020,2019-03-25 16:59:40:836
-1.23,-1.33,16.05,-1.04,-1.52,5.91,0.0,0.04,-0.17,5024,2019-03-25 16:59:40:840
-1.23,-1.33,16.05,-1.04,-1.52,5.91,0.0,0.04,-0.17,5029,2019-03-25 16:59:40:845
-1.23,-1.33,16.05,-1.04,-1.52,5.91,0.0,0.04,-0.17,5034,2019-03-25 16:59:40:850
-0.34,-1.66,12.88,-0.2,-1.76,2.3,0.19,0.11,-0.02,5040,2019-03-25 16:59:40:856
-0.34,-1.66,12.88,-0.2,-1.76,2.3,0.19,0.11,-0.02,5043,2019-03-25 16:59:40:859
-1.11,0.72,8.54,-0.2,-1.76,2.3,0.49,0.08,0.12,5049,2019-03-25 16:59:40:865
-1.11,0.72,8.54,-0.82,0.26,-1.71,0.49,0.08,0.12,5054,2019-03-25 16:59:40:870
-1.11,0.72,8.54,-0.82,0.26,-1.71,0.49,0.08,0.12,5059,2019-03-25 16:59:40:875
-1.11,0.72,8.54,-0.82,0.26,-1.71,0.49,0.08,0.12,5064,2019-03-25 16:59:40:880
-1.11,0.72,8.54,-0.82,0.26,-1.71,0.49,0.08,0.12,5069,2019-03-25 16:59:40:885
-1.11,0.72,8.54,-0.82,0.26,-1.71,0.49,0.08,0.12,5074,2019-03-25 16:59:40:890
-2.57,3.35,8.24,-2.2,2.55,-1.98,0.22,0.09,0.26,5079,2019-03-25 16:59:40:895
-2.57,3.35,8.24,-2.2,2.55,-1.98,0.22,0.09,0.26,5084,2019-03-25 16:59:40:900
-2.57,3.35,8.24,-2.2,2.55,-1.98,0.22,0.09,0.26,5089,2019-03-25 16:59:40:905
-1.1,3.06,10.07,-2.2,2.55,-1.98,0.14,-0.03,0.21,5094,2019-03-25 16:59:40:910
-1.1,3.06,10.07,-2.2,2.55,-1.98,0.14,-0.03,0.21,5099,2019-03-25 16:59:40:915
-1.1,3.06,10.07,-2.2,2.55,-1.98,0.14,-0.03,0.21,5104,2019-03-25 16:59:40:920
-1.1,3.06,10.07,-2.2,2.55,-1.98,0.14,-0.03,0.21,5109,2019-03-25 16:59:40:925
-1.1,3.06,10.07,-2.2,2.55,-1.98,0.14,-0.03,0.21,5114,2019-03-25 16:59:40:930
-0.83,1.06,6.95,-0.25,-0.52,-3.25,0.1,-0.08,0.18,5119,2019-03-25 16:59:40:935
-0.83,1.06,6.95,-0.25,-0.52,-3.25,0.1,-0.08,0.18,5124,2019-03-25 16:59:40:940
-0.83,1.06,6.95,-0.25,-0.52,-3.25,0.1,-0.08,0.18,5129,2019-03-25 16:59:40:945
-0.83,1.06,6.95,-0.25,-0.52,-3.25,0.1,-0.08,0.18,5133,2019-03-25 16:59:40:949
0.44,-0.56,8.83,0.78,-2.19,-1.18,-0.04,-0.15,0.11,5139,2019-03-25 16:59:40:955
0.44,-0.56,8.83,0.78,-2.19,-1.18,-0.04,-0.15,0.11,5144,2019-03-25 16:59:40:960
0.44,-0.56,8.83,0.78,-2.19,-1.18,-0.04,-0.15,0.11,5149,2019-03-25 16:59:40:965
0.44,-0.56,8.83,0.78,-2.19,-1.18,-0.04,-0.15,0.11,5154,2019-03-25 16:59:40:970
1.6,0.48,10.11,1.54,-1.02,0.17,-0.2,0.03,0.16,5159,2019-03-25 16:59:40:975
1.6,0.48,10.11,1.54,-1.02,0.17,-0.2,0.03,0.16,5164,2019-03-25 16:59:40:980
1.6,0.48,10.11,1.54,-1.02,0.17,-0.2,0.03,0.16,5169,2019-03-25 16:59:40:985
1.6,0.48,10.11,1.54,-1.02,0.17,-0.2,0.03,0.16,5174,2019-03-25 16:59:40:990
0.85,0.31,10.25,0.78,-0.65,0.21,-0.14,0.0,0.18,5180,2019-03-25 16:59:40:996
0.85,0.31,10.25,0.78,-0.65,0.21,-0.14,0.0,0.18,5184,2019-03-25 16:59:41:000
0.85,0.31,10.25,0.78,-0.65,0.21,-0.14,0.0,0.18,5189,2019-03-25 16:59:41:005
1.15,1.77,12.74,1.09,1.09,2.58,-0.19,0.02,0.16,5195,2019-03-25 16:59:41:011
1.15,1.77,12.74,1.09,1.09,2.58,-0.19,0.02,0.16,5199,2019-03-25 16:59:41:015
1.15,1.77,12.74,1.09,1.09,2.58,-0.19,0.02,0.16,5204,2019-03-25 16:59:41:020
1.15,1.77,12.74,1.09,1.09,2.58,-0.19,0.02,0.16,5209,2019-03-25 16:59:41:025
2.4,2.79,13.16,2.06,1.82,3.18,-0.08,0.08,0.05,5213,2019-03-25 16:59:41:029
2.4,2.79,13.16,2.06,1.82,3.18,-0.08,0.08,0.05,5219,2019-03-25 16:59:41:035
2.4,2.79,13.16,2.06,1.82,3.18,-0.08,0.08,0.05,5226,2019-03-25 16:59:41:042
2.4,2.79,13.16,2.06,1.82,3.18,-0.08,0.08,0.05,5229,2019-03-25 16:59:41:045
3.98,4.41,10.98,3.37,2.87,1.19,0.05,0.05,-0.12,5234,2019-03-25 16:59:41:050
3.98,4.41,10.98,3.37,2.87,1.19,0.05,0.05,-0.12,5239,2019-03-25 16:59:41:055
3.98,4.41,10.98,3.37,2.87,1.19,0.05,0.05,-0.12,5245,2019-03-25 16:59:41:061
3.98,4.41,10.98,3.37,2.87,1.19,0.05,0.05,-0.12,5249,2019-03-25 16:59:41:065
0.98,3.45,8.5,-0.04,1.61,-1.48,0.17,0.04,-0.23,5254,2019-03-25 16:59:41:070
0.98,3.45,8.5,-0.04,1.61,-1.48,0.17,0.04,-0.23,5258,2019-03-25 16:59:41:074
0.98,3.45,8.5,-0.04,1.61,-1.48,0.17,0.04,-0.23,5264,2019-03-25 16:59:41:080
0.98,3.45,8.5,-0.04,1.61,-1.48,0.17,0.04,-0.23,5270,2019-03-25 16:59:41:086
0.76,0.81,7.02,-0.6,-1.01,-2.77,0.15,-0.03,-0.25,5274,2019-03-25 16:59:41:090
0.76,0.81,7.02,-0.6,-1.01,-2.77,0.15,-0.03,-0.25,5279,2019-03-25 16:59:41:095
0.76,0.81,7.02,-0.6,-1.01,-2.77,0.15,-0.03,-0.25,5284,2019-03-25 16:59:41:100
0.76,0.81,7.02,-0.6,-1.01,-2.77,0.15,-0.03,-0.25,5289,2019-03-25 16:59:41:105
-0.98,1.46,11.06,-2.36,-0.23,1.09,0.01,-0.11,-0.29,5294,2019-03-25 16:59:41:110
-0.98,1.46,11.06,-2.36,-0.23,1.09,0.01,-0.11,-0.29,5299,2019-03-25 16:59:41:115
-0.98,1.46,11.06,-2.36,-0.23,1.09,0.01,-0.11,-0.29,5305,2019-03-25 16:59:41:121
-0.98,1.46,11.06,-2.36,-0.23,1.09,0.01,-0.11,-0.29,5309,2019-03-25 16:59:41:125
-1.44,-1.41,9.14,-2.74,-2.87,-0.68,0.07,-0.11,-0.37,5314,2019-03-25 16:59:41:130
-1.44,-1.41,9.14,-2.74,-2.87,-0.68,0.07,-0.11,-0.37,5319,2019-03-25 16:59:41:135
-1.44,-1.41,9.14,-2.74,-2.87,-0.68,0.07,-0.11,-0.37,5324,2019-03-25 16:59:41:140
-1.44,-1.41,9.14,-2.74,-2.87,-0.68,0.07,-0.11,-0.37,5329,2019-03-25 16:59:41:145
-0.03,-2.57,14.15,-1.14,-3.86,3.85,-0.25,-0.05,-0.25,5335,2019-03-25 16:59:41:151
-0.03,-2.57,14.15,-1.14,-3.86,3.85,-0.25,-0.05,-0.25,5339,2019-03-25 16:59:41:155
-0.03,-2.57,14.15,-1.14,-3.86,3.85,-0.25,-0.05,-0.25,5344,2019-03-25 16:59:41:160
-0.03,-2.57,14.15,-1.14,-3.86,3.85,-0.25,-0.05,-0.25,5349,2019-03-25 16:59:41:165
-0.03,-2.57,14.15,-1.14,-3.86,3.85,-0.25,-0.05,-0.25,5354,2019-03-25 16:59:41:170
1.23,-2.09,9.57,0.28,-3.05,-0.86,-0.18,0.18,-0.15,5359,2019-03-25 16:59:41:175
1.23,-2.09,9.57,0.28,-3.05,-0.86,-0.18,0.18,-0.15,5364,2019-03-25 16:59:41:180
1.23,-2.09,9.57,0.28,-3.05,-0.86,-0.18,0.18,-0.15,5369,2019-03-25 16:59:41:185
1.23,-2.09,9.57,0.28,-3.05,-0.86,-0.18,0.18,-0.15,5375,2019-03-25 16:59:41:191
-0.54,-2.13,7.36,-1.41,-2.78,-2.76,-0.04,0.19,0.04,5379,2019-03-25 16:59:41:195
-0.54,-2.13,7.36,-1.41,-2.78,-2.76,-0.04,0.19,0.04,5384,2019-03-25 16:59:41:200
-0.54,-2.13,7.36,-1.41,-2.78,-2.76,-0.04,0.19,0.04,5389,2019-03-25 16:59:41:205
-0.8,0.64,9.16,-1.52,0.1,-0.74,-0.21,0.13,0.22,5394,2019-03-25 16:59:41:210
-0.8,0.64,9.16,-1.52,0.1,-0.74,-0.21,0.13,0.22,5399,2019-03-25 16:59:41:215
-0.8,0.64,9.16,-1.52,0.1,-0.74,-0.21,0.13,0.22,5405,2019-03-25 16:59:41:221
-0.8,0.64,9.16,-1.52,0.1,-0.74,-0.21,0.13,0.22,5409,2019-03-25 16:59:41:225
-0.8,0.64,9.16,-1.52,0.1,-0.74,-0.21,0.13,0.22,5415,2019-03-25 16:59:41:231
-0.84,2.56,10.4,-1.25,2.05,0.72,-0.12,0.04,0.21,5420,2019-03-25 16:59:41:236
-0.84,2.56,10.4,-1.25,2.05,0.72,-0.12,0.04,0.21,5424,2019-03-25 16:59:41:240
-0.84,2.56,10.4,-1.25,2.05,0.72,-0.12,0.04,0.21,5429,2019-03-25 16:59:41:245
0.46,1.88,9.99,0.38,1.57,0.56,-0.01,-0.04,0.04,5434,2019-03-25 16:59:41:250
0.46,1.88,9.99,0.38,1.57,0.56,-0.01,-0.04,0.04,5440,2019-03-25 16:59:41:256
0.46,1.88,9.99,0.38,1.57,0.56,-0.01,-0.04,0.04,5444,2019-03-25 16:59:41:260
0.46,1.88,9.99,0.38,1.57,0.56,-0.01,-0.04,0.04,5449,2019-03-25 16:59:41:265
0.46,1.88,9.99,0.38,1.57,0.56,-0.01,-0.04,0.04,5454,2019-03-25 16:59:41:270
1.37,0.9,9.04,0.38,1.57,0.56,0.0,-0.12,-0.1,5459,2019-03-25 16:59:41:275
1.37,0.9,9.04,1.41,0.75,-0.47,0.0,-0.12,-0.1,5464,2019-03-25 16:59:41:280
1.37,0.9,9.04,1.41,0.75,-0.47,0.0,-0.12,-0.1,5469,2019-03-25 16:59:41:285
1.37,0.9,9.04,1.41,0.75,-0.47,0.0,-0.12,-0.1,5474,2019-03-25 16:59:41:290
1.71,2.06,10.7,1.68,1.85,0.77,0.03,-0.16,-0.21,5479,2019-03-25 16:59:41:295
1.71,2.06,10.7,1.68,1.85,0.77,0.03,-0.16,-0.21,5484,2019-03-25 16:59:41:300
1.71,2.06,10.7,1.68,1.85,0.77,0.16,-0.19,-0.29,5489,2019-03-25 16:59:41:305
0.19,-0.32,10.92,0.29,0.0,2.13,0.16,-0.19,-0.29,5494,2019-03-25 16:59:41:310
0.19,-0.32,10.92,0.29,0.0,2.13,0.16,-0.19,-0.29,5499,2019-03-25 16:59:41:315
0.19,-0.32,10.92,0.29,0.0,2.13,0.16,-0.19,-0.29,5506,2019-03-25 16:59:41:322
0.41,-2.35,10.06,-0.02,-2.49,-0.2,0.19,-0.1,-0.29,5509,2019-03-25 16:59:41:325
0.41,-2.35,10.06,-0.02,-2.49,-0.2,0.19,-0.1,-0.29,5514,2019-03-25 16:59:41:330
0.41,-2.35,10.06,-0.02,-2.49,-0.2,0.19,-0.1,-0.29,5519,2019-03-25 16:59:41:335
0.41,-2.35,10.06,-0.02,-2.49,-0.2,0.19,-0.1,-0.29,5524,2019-03-25 16:59:41:340
0.41,-2.35,10.06,-0.02,-2.49,-0.2,0.19,-0.1,-0.29,5529,2019-03-25 16:59:41:345
0.41,-2.35,10.06,-0.02,-2.49,-0.2,0.19,-0.1,-0.29,5534,2019-03-25 16:59:41:350
0.41,-2.35,10.06,-0.02,-2.49,-0.2,0.19,-0.1,-0.29,5539,2019-03-25 16:59:41:355
0.15,-1.96,7.5,-0.33,-2.08,-2.11,0.01,-0.02,-0.25,5544,2019-03-25 16:59:41:360
0.15,-1.96,7.5,-0.33,-2.08,-2.11,0.01,-0.02,-0.25,5549,2019-03-25 16:59:41:365
0.15,-1.96,7.5,-0.33,-2.08,-2.11,0.01,-0.02,-0.25,5554,2019-03-25 16:59:41:370
0.46,-0.99,7.39,0.03,-1.34,-2.13,-0.3,-0.05,-0.17,5559,2019-03-25 16:59:41:375
0.46,-0.99,7.39,0.03,-1.34,-2.13,-0.3,-0.05,-0.17,5565,2019-03-25 16:59:41:381
0.46,-0.99,7.39,0.03,-1.34,-2.13,-0.27,-0.06,-0.19,5569,2019-03-25 16:59:41:385
0.37,-0.36,11.65,0.03,-1.34,-2.13,-0.27,-0.06,-0.19,5574,2019-03-25 16:59:41:390
0.37,-0.36,11.65,-0.09,-0.68,1.92,-0.27,-0.06,-0.19,5579,2019-03-25 16:59:41:395
0.37,-0.36,11.65,-0.09,-0.68,1.92,-0.27,-0.06,-0.19,5586,2019-03-25 16:59:41:402
0.37,-0.36,11.65,-0.09,-0.68,1.92,-0.27,-0.06,-0.19,5588,2019-03-25 16:59:41:404
0.37,-0.36,11.65,-0.09,-0.68,1.92,-0.27,-0.06,-0.19,5594,2019-03-25 16:59:41:410
-0.55,-0.7,11.89,-1.04,-0.93,2.02,-0.28,-0.07,-0.21,5599,2019-03-25 16:59:41:415
-0.55,-0.7,11.89,-1.04,-0.93,2.02,-0.28,-0.07,-0.21,5604,2019-03-25 16:59:41:420
-0.55,-0.7,11.89,-1.04,-0.93,2.02,-0.07,-0.02,-0.18,5609,2019-03-25 16:59:41:425
-0.55,-0.7,11.89,-1.04,-0.93,2.02,-0.07,-0.02,-0.18,5616,2019-03-25 16:59:41:432
-0.55,-0.7,11.89,-1.04,-0.93,2.02,-0.07,-0.02,-0.18,5618,2019-03-25 16:59:41:434
-0.55,-0.7,11.89,-1.04,-0.93,2.02,-0.07,-0.02,-0.18,5624,2019-03-25 16:59:41:440
-4.0,-1.31,11.22,-4.01,-0.83,1.14,0.0,0.0,-0.07,5629,2019-03-25 16:59:41:445
-4.0,-1.31,11.22,-4.01,-0.83,1.14,0.0,0.0,-0.07,5636,2019-03-25 16:59:41:452
-4.0,-1.31,11.22,-4.01,-0.83,1.14,0.0,0.0,-0.07,5639,2019-03-25 16:59:41:455
-4.0,-1.31,11.22,-4.01,-0.83,1.14,0.0,0.0,-0.07,5644,2019-03-25 16:59:41:460
-1.28,-3.17,8.63,-0.98,-2.23,-1.35,0.14,0.04,0.29,5650,2019-03-25 16:59:41:466
-1.28,-3.17,8.63,-0.98,-2.23,-1.35,0.14,0.04,0.29,5654,2019-03-25 16:59:41:470
-1.28,-3.17,8.63,-0.98,-2.23,-1.35,0.14,0.04,0.29,5659,2019-03-25 16:59:41:475
-1.28,-3.17,8.63,-0.98,-2.23,-1.35,0.14,0.04,0.29,5664,2019-03-25 16:59:41:480
-1.28,-3.17,8.63,-0.98,-2.23,-1.35,0.14,0.04,0.29,5669,2019-03-25 16:59:41:485
1.85,0.67,14.47,2.22,1.84,4.16,-0.04,0.04,0.66,5675,2019-03-25 16:59:41:491
1.85,0.67,14.47,2.22,1.84,4.16,-0.04,0.04,0.66,5679,2019-03-25 16:59:41:495
1.85,0.67,14.47,2.22,1.84,4.16,-0.04,0.04,0.66,5683,2019-03-25 16:59:41:499
1.85,0.67,14.47,2.22,1.84,4.16,-0.04,0.04,0.66,5689,2019-03-25 16:59:41:505
1.85,0.67,14.47,2.22,1.84,4.16,-0.04,0.04,0.66,5694,2019-03-25 16:59:41:510
1.85,0.67,14.47,2.22,1.84,4.16,-0.04,0.04,0.66,5699,2019-03-25 16:59:41:515
0.65,2.13,8.84,1.1,3.11,-1.39,0.16,0.16,0.7,5704,2019-03-25 16:59:41:520
0.65,2.13,8.84,1.1,3.11,-1.39,0.16,0.16,0.7,5711,2019-03-25 16:59:41:527
0.65,2.13,8.84,1.1,3.11,-1.39,0.16,0.16,0.7,5716,2019-03-25 16:59:41:532
0.65,2.13,8.84,1.1,3.11,-1.39,0.16,0.16,0.7,5719,2019-03-25 16:59:41:535
0.65,2.13,8.84,1.1,3.11,-1.39,0.16,0.16,0.7,5724,2019-03-25 16:59:41:540
0.65,2.13,8.84,1.1,3.11,-1.39,0.16,0.16,0.7,5729,2019-03-25 16:59:41:545
1.43,2.82,9.22,1.76,2.81,-1.04,0.04,0.06,0.53,5734,2019-03-25 16:59:41:550
1.43,2.82,9.22,1.76,2.81,-1.04,0.04,0.06,0.53,5742,2019-03-25 16:59:41:558
1.43,2.82,9.22,1.76,2.81,-1.04,0.04,0.06,0.53,5744,2019-03-25 16:59:41:560
1.43,2.82,9.22,1.76,2.81,-1.04,0.04,0.06,0.53,5749,2019-03-25 16:59:41:565
1.43,2.82,9.22,1.76,2.81,-1.04,0.04,0.06,0.53,5755,2019-03-25 16:59:41:571
1.43,2.82,9.22,1.76,2.81,-1.04,0.04,0.06,0.53,5760,2019-03-25 16:59:41:576
1.43,2.82,9.22,1.76,2.81,-1.04,0.04,0.06,0.53,5764,2019-03-25 16:59:41:580
1.4,1.82,9.09,1.71,1.48,-1.11,0.08,0.03,0.35,5769,2019-03-25 16:59:41:585
1.4,1.82,9.09,1.71,1.48,-1.11,0.08,0.03,0.35,5775,2019-03-25 16:59:41:591
1.4,1.82,9.09,1.71,1.48,-1.11,0.08,0.03,0.35,5779,2019-03-25 16:59:41:595
1.4,1.82,9.09,1.71,1.48,-1.11,0.08,0.03,0.35,5784,2019-03-25 16:59:41:600
2.55,0.82,6.63,2.65,0.28,-3.52,0.0,0.0,0.26,5789,2019-03-25 16:59:41:605
2.55,0.82,6.63,2.65,0.28,-3.52,0.0,0.0,0.26,5796,2019-03-25 16:59:41:612
2.55,0.82,6.63,2.65,0.28,-3.52,0.0,0.0,0.26,5799,2019-03-25 16:59:41:615
2.55,0.82,6.63,2.65,0.28,-3.52,0.0,0.0,0.26,5804,2019-03-25 16:59:41:620
1.4,3.67,13.76,2.65,0.28,-3.52,0.0,0.0,0.26,5808,2019-03-25 16:59:41:624
1.4,3.67,13.76,1.15,2.61,3.79,-0.23,-0.16,0.0,5815,2019-03-25 16:59:41:631
1.4,3.67,13.76,1.15,2.61,3.79,-0.23,-0.16,0.0,5819,2019-03-25 16:59:41:635
1.4,3.67,13.76,1.15,2.61,3.79,-0.23,-0.16,0.0,5824,2019-03-25 16:59:41:640
2.21,2.11,7.71,1.41,0.78,-2.03,-0.07,-0.09,-0.19,5830,2019-03-25 16:59:41:646
2.21,2.11,7.71,1.41,0.78,-2.03,-0.07,-0.09,-0.19,5834,2019-03-25 16:59:41:650
2.21,2.11,7.71,1.41,0.78,-2.03,-0.07,-0.09,-0.19,5839,2019-03-25 16:59:41:655
2.21,2.11,7.71,1.41,0.78,-2.03,-0.07,-0.09,-0.19,5846,2019-03-25 16:59:41:662
1.29,1.38,10.86,2.06,-1.04,0.09,-0.09,-0.13,-0.38,5851,2019-03-25 16:59:41:667
1.29,1.38,10.86,2.06,-1.04,0.09,-0.09,-0.13,-0.38,5866,2019-03-25 16:59:41:682
1.29,1.38,10.86,2.06,-1.04,0.09,-0.09,-0.13,-0.38,5867,2019-03-25 16:59:41:683
1.29,1.38,10.86,2.06,-1.04,0.09,-0.09,-0.13,-0.38,5867,2019-03-25 16:59:41:683
1.29,1.38,10.86,2.06,-1.04,0.09,-0.09,-0.13,-0.38,5869,2019-03-25 16:59:41:685
1.29,1.38,10.86,2.06,-1.04,0.09,-0.09,-0.13,-0.38,5876,2019-03-25 16:59:41:692
1.29,1.38,10.86,2.06,-1.04,0.09,-0.09,-0.13,-0.38,5879,2019-03-25 16:59:41:695
2.67,2.53,10.61,1.2,0.64,0.83,-0.14,-0.15,-0.45,5886,2019-03-25 16:59:41:702
2.67,2.53,10.61,1.2,0.64,0.83,-0.14,-0.15,-0.45,5897,2019-03-25 16:59:41:713
2.67,2.53,10.61,1.2,0.64,0.83,-0.14,-0.15,-0.45,5898,2019-03-25 16:59:41:714
2.67,2.53,10.61,1.2,0.64,0.83,-0.14,-0.15,-0.45,5898,2019-03-25 16:59:41:714
-0.07,1.49,6.77,-0.9,0.24,-0.43,0.03,-0.03,-0.42,5904,2019-03-25 16:59:41:720
-0.07,1.49,6.77,-0.9,0.24,-0.43,0.03,-0.03,-0.42,5909,2019-03-25 16:59:41:725
-0.07,1.49,6.77,-0.9,0.24,-0.43,0.03,-0.03,-0.42,5914,2019-03-25 16:59:41:730
-0.12,0.76,10.08,-1.62,-1.18,0.49,0.02,-0.04,-0.33,5919,2019-03-25 16:59:41:735
-0.12,0.76,10.08,-1.62,-1.18,0.49,0.02,-0.04,-0.33,5926,2019-03-25 16:59:41:742
-0.12,0.76,10.08,-1.62,-1.18,0.49,0.15,-0.05,-0.25,5929,2019-03-25 16:59:41:745
-3.54,-1.44,11.42,-1.62,-1.18,0.49,0.15,-0.05,-0.25,5936,2019-03-25 16:59:41:752
-3.54,-1.44,11.42,-1.62,-1.18,0.49,0.15,-0.05,-0.25,5939,2019-03-25 16:59:41:755
-3.54,-1.44,11.42,-1.62,-1.18,0.49,0.15,-0.05,-0.25,5943,2019-03-25 16:59:41:759
-2.25,-2.78,8.46,-3.02,-4.19,-1.55,0.19,0.0,-0.17,5953,2019-03-25 16:59:41:769
-2.25,-2.78,8.46,-3.02,-4.19,-1.55,0.19,0.0,-0.17,5955,2019-03-25 16:59:41:771
-2.25,-2.78,8.46,-3.02,-4.19,-1.55,0.19,0.0,-0.17,5962,2019-03-25 16:59:41:778
-2.25,-2.78,8.46,-3.02,-4.19,-1.55,0.19,0.0,-0.17,5964,2019-03-25 16:59:41:780
-2.25,-2.78,8.46,-3.02,-4.19,-1.55,0.19,0.0,-0.17,5970,2019-03-25 16:59:41:786
-2.25,-2.78,8.46,-3.02,-4.19,-1.55,0.19,0.0,-0.17,5973,2019-03-25 16:59:41:789
-2.25,-2.78,8.46,-3.02,-4.19,-1.55,0.19,0.0,-0.17,5980,2019-03-25 16:59:41:796
-1.75,-4.12,11.38,-2.1,-5.18,0.72,0.08,0.04,0.01,5984,2019-03-25 16:59:41:800
-1.75,-4.12,11.38,-2.1,-5.18,0.72,0.08,0.04,0.01,5989,2019-03-25 16:59:41:805
-1.75,-4.12,11.38,-2.1,-5.18,0.72,0.08,0.04,0.01,5994,2019-03-25 16:59:41:810
-1.75,-4.12,11.38,-2.1,-5.18,0.72,0.08,0.04,0.01,5999,2019-03-25 16:59:41:815
-1.75,-4.12,11.38,-2.1,-5.18,0.72,0.08,0.04,0.01,6005,2019-03-25 16:59:41:821
-0.29,-0.53,4.25,-2.1,-5.18,0.72,0.08,0.04,0.01,6009,2019-03-25 16:59:41:825
-0.29,-0.53,4.25,-0.35,-0.92,-5.62,0.14,0.03,0.36,6014,2019-03-25 16:59:41:830
-0.29,-0.53,4.25,-0.35,-0.92,-5.62,0.14,0.03,0.36,6019,2019-03-25 16:59:41:835
-0.29,-0.53,4.25,-0.35,-0.92,-5.62,0.14,0.03,0.36,6024,2019-03-25 16:59:41:840
-0.29,-0.53,4.25,-0.35,-0.92,-5.62,0.14,0.03,0.36,6031,2019-03-25 16:59:41:847
-0.29,-0.53,4.25,-0.35,-0.92,-5.62,0.14,0.03,0.36,6034,2019-03-25 16:59:41:850
-0.29,-0.53,4.25,-0.35,-0.92,-5.62,0.14,0.03,0.36,6039,2019-03-25 16:59:41:855
-0.06,2.33,13.75,0.28,2.02,3.52,0.0,0.0,0.53,6045,2019-03-25 16:59:41:861
-0.06,2.33,13.75,0.28,2.02,3.52,0.0,0.0,0.53,6050,2019-03-25 16:59:41:866
-0.06,2.33,13.75,0.28,2.02,3.52,0.0,0.0,0.53,6054,2019-03-25 16:59:41:870
-0.06,2.33,13.75,0.28,2.02,3.52,0.0,0.0,0.53,6059,2019-03-25 16:59:41:875
-0.06,2.33,13.75,0.28,2.02,3.52,0.19,0.0,0.45,6064,2019-03-25 16:59:41:880
0.41,0.9,6.45,1.1,0.62,-3.59,0.19,0.0,0.45,6068,2019-03-25 16:59:41:884
0.41,0.9,6.45,1.1,0.62,-3.59,0.19,0.0,0.45,6075,2019-03-25 16:59:41:891
0.41,0.9,6.45,1.1,0.62,-3.59,0.19,0.0,0.45,6079,2019-03-25 16:59:41:895
0.41,0.9,6.45,1.1,0.62,-3.59,0.19,0.0,0.45,6084,2019-03-25 16:59:41:900
0.41,0.9,6.45,1.1,0.62,-3.59,0.19,0.0,0.45,6091,2019-03-25 16:59:41:907
0.41,0.9,6.45,1.1,0.62,-3.59,0.19,0.0,0.45,6095,2019-03-25 16:59:41:911
2.89,1.35,11.99,1.1,0.62,-3.59,0.19,0.0,0.45,6099,2019-03-25 16:59:41:915
2.89,1.35,11.99,1.1,0.62,-3.59,0.19,0.0,0.45,6104,2019-03-25 16:59:41:920
2.89,1.35,11.99,3.58,1.31,1.69,0.1,-0.01,0.35,6110,2019-03-25 16:59:41:926
2.89,1.35,11.99,3.58,1.31,1.69,0.1,-0.01,0.35,6114,2019-03-25 16:59:41:930
2.89,1.35,11.99,3.58,1.31,1.69,0.1,-0.01,0.35,6119,2019-03-25 16:59:41:935
2.89,1.35,11.99,3.58,1.31,1.69,0.1,-0.01,0.35,6125,2019-03-25 16:59:41:941
1.93,0.76,9.65,1.93,0.87,-0.29,0.01,-0.06,0.1,6128,2019-03-25 16:59:41:944
1.93,0.76,9.65,1.93,0.87,-0.29,0.01,-0.06,0.1,6134,2019-03-25 16:59:41:950
1.93,0.76,9.65,1.93,0.87,-0.29,0.01,-0.06,0.1,6140,2019-03-25 16:59:41:956
1.93,0.76,9.65,1.93,0.87,-0.29,0.01,-0.06,0.1,6144,2019-03-25 16:59:41:960
-0.52,0.85,8.14,-0.86,0.64,-1.81,0.06,-0.04,-0.01,6150,2019-03-25 16:59:41:966
-0.52,0.85,8.14,-0.86,0.64,-1.81,0.06,-0.04,-0.01,6154,2019-03-25 16:59:41:970
-0.52,0.85,8.14,-0.86,0.64,-1.81,0.06,-0.04,-0.01,6159,2019-03-25 16:59:41:975
1.32,0.82,9.44,0.63,0.34,-0.09,-0.05,-0.02,-0.04,6164,2019-03-25 16:59:41:980
1.32,0.82,9.44,0.63,0.34,-0.09,-0.05,-0.02,-0.04,6169,2019-03-25 16:59:41:985
1.32,0.82,9.44,0.63,0.34,-0.09,-0.05,-0.02,-0.04,6175,2019-03-25 16:59:41:991
1.32,0.82,9.44,0.63,0.34,-0.09,-0.05,-0.02,-0.04,6180,2019-03-25 16:59:41:996
1.32,0.82,9.44,0.63,0.34,-0.09,-0.05,-0.02,-0.04,6184,2019-03-25 16:59:42:000
2.03,0.0,10.12,1.13,-0.69,0.3,0.09,-0.04,-0.15,6189,2019-03-25 16:59:42:005
2.03,0.0,10.12,1.13,-0.69,0.3,0.09,-0.04,-0.15,6194,2019-03-25 16:59:42:010
2.03,0.0,10.12,1.13,-0.69,0.3,0.09,-0.04,-0.15,6199,2019-03-25 16:59:42:015
2.03,0.0,10.12,1.13,-0.69,0.3,0.09,-0.04,-0.15,6203,2019-03-25 16:59:42:019
2.03,0.0,10.12,1.13,-0.69,0.3,0.09,-0.04,-0.15,6209,2019-03-25 16:59:42:025
0.32,-1.38,8.16,-0.7,-2.01,-1.87,0.07,-0.06,-0.2,6214,2019-03-25 16:59:42:030
0.32,-1.38,8.16,-0.7,-2.01,-1.87,0.07,-0.06,-0.2,6218,2019-03-25 16:59:42:034
0.32,-1.38,8.16,-0.7,-2.01,-1.87,0.07,-0.06,-0.2,6225,2019-03-25 16:59:42:041
1.45,-1.26,10.43,0.13,-1.67,0.62,-0.01,-0.06,-0.19,6230,2019-03-25 16:59:42:046
1.45,-1.26,10.43,0.13,-1.67,0.62,-0.01,-0.06,-0.19,6234,2019-03-25 16:59:42:050
1.45,-1.26,10.43,0.13,-1.67,0.62,-0.01,-0.06,-0.19,6239,2019-03-25 16:59:42:055
1.45,-1.26,10.43,0.13,-1.67,0.62,-0.01,-0.06,-0.19,6244,2019-03-25 16:59:42:060
-0.7,0.11,10.68,-2.01,-0.08,0.68,-0.01,-0.05,-0.17,6250,2019-03-25 16:59:42:066
-0.7,0.11,10.68,-2.01,-0.08,0.68,-0.01,-0.05,-0.17,6254,2019-03-25 16:59:42:070
-0.7,0.11,10.68,-2.01,-0.08,0.68,-0.01,-0.05,-0.17,6260,2019-03-25 16:59:42:076
-0.7,0.11,10.68,-2.01,-0.08,0.68,-0.01,-0.05,-0.17,6266,2019-03-25 16:59:42:082
-0.7,0.11,10.68,-2.01,-0.08,0.68,-0.01,-0.05,-0.17,6270,2019-03-25 16:59:42:086
-0.7,0.11,10.68,-2.01,-0.08,0.68,-0.01,-0.05,-0.17,6274,2019-03-25 16:59:42:090
-1.18,0.45,9.28,-2.32,0.4,-0.7,-0.05,0.05,-0.11,6280,2019-03-25 16:59:42:096
-1.18,0.45,9.28,-2.32,0.4,-0.7,-0.05,0.05,-0.11,6284,2019-03-25 16:59:42:100
-1.18,0.45,9.28,-2.32,0.4,-0.7,-0.05,0.05,-0.11,6289,2019-03-25 16:59:42:105
-1.0,2.65,9.6,-3.41,2.21,1.49,-0.06,0.06,-0.05,6294,2019-03-25 16:59:42:110
-1.0,2.65,9.6,-3.41,2.21,1.49,-0.06,0.06,-0.05,6299,2019-03-25 16:59:42:115
-1.0,2.65,9.6,-3.41,2.21,1.49,-0.06,0.06,-0.05,6304,2019-03-25 16:59:42:120
1.31,1.7,9.1,0.81,1.37,-0.69,0.06,-0.02,0.1,6309,2019-03-25 16:59:42:125
1.31,1.7,9.1,0.81,1.37,-0.69,0.06,-0.02,0.1,6314,2019-03-25 16:59:42:130
1.31,1.7,9.1,0.81,1.37,-0.69,0.06,-0.02,0.1,6319,2019-03-25 16:59:42:135
1.31,1.7,9.1,0.81,1.37,-0.69,0.06,-0.02,0.1,6324,2019-03-25 16:59:42:140
1.31,3.55,11.33,0.77,2.93,1.28,-0.01,-0.04,0.13,6329,2019-03-25 16:59:42:145
1.31,3.55,11.33,0.77,2.93,1.28,-0.01,-0.04,0.13,6334,2019-03-25 16:59:42:150
1.31,3.55,11.33,0.77,2.93,1.28,-0.01,-0.04,0.13,6338,2019-03-25 16:59:42:154
1.31,3.55,11.33,0.77,2.93,1.28,-0.01,-0.04,0.13,6344,2019-03-25 16:59:42:160
-0.38,3.83,8.14,-0.86,2.91,-1.85,0.13,0.12,0.1,6349,2019-03-25 16:59:42:165
-0.38,3.83,8.14,-0.86,2.91,-1.85,0.13,0.12,0.1,6354,2019-03-25 16:59:42:170
-0.38,3.83,8.14,-0.86,2.91,-1.85,0.13,0.12,0.1,6359,2019-03-25 16:59:42:175
-0.38,3.83,8.14,-0.86,2.91,-1.85,0.13,0.12,0.1,6364,2019-03-25 16:59:42:180
-0.59,3.24,10.07,-0.91,1.99,-0.05,0.14,0.02,0.03,6369,2019-03-25 16:59:42:185
-0.59,3.24,10.07,-0.91,1.99,-0.05,0.14,0.02,0.03,6374,2019-03-25 16:59:42:190
-0.59,3.24,10.07,-0.91,1.99,-0.05,0.14,0.02,0.03,6379,2019-03-25 16:59:42:195
-0.59,3.24,10.07,-0.91,1.99,-0.05,0.14,0.02,0.03,6384,2019-03-25 16:59:42:200
0.75,1.01,8.41,0.54,-0.39,-1.45,0.15,-0.03,-0.01,6389,2019-03-25 16:59:42:205
0.75,1.01,8.41,0.54,-0.39,-1.45,0.15,-0.03,-0.01,6394,2019-03-25 16:59:42:210
0.75,1.01,8.41,0.54,-0.39,-1.45,0.15,-0.03,-0.01,6399,2019-03-25 16:59:42:215
0.75,1.01,8.41,0.54,-0.39,-1.45,0.15,-0.03,-0.01,6404,2019-03-25 16:59:42:220
-0.44,-1.17,6.62,-0.62,-2.61,-3.13,0.0,-0.07,0.05,6409,2019-03-25 16:59:42:225
-0.44,-1.17,6.62,-0.62,-2.61,-3.13,0.0,-0.07,0.05,6414,2019-03-25 16:59:42:230
-0.44,-1.17,6.62,-0.62,-2.61,-3.13,0.0,-0.07,0.05,6420,2019-03-25 16:59:42:236
-0.44,-1.17,6.62,-0.62,-2.61,-3.13,0.0,-0.07,0.05,6424,2019-03-25 16:59:42:240
-1.4,0.44,13.56,-1.33,-1.07,3.77,-0.21,-0.23,0.1,6429,2019-03-25 16:59:42:245
-1.4,0.44,13.56,-1.33,-1.07,3.77,-0.21,-0.23,0.1,6434,2019-03-25 16:59:42:250
-1.4,0.44,13.56,-1.33,-1.07,3.77,-0.21,-0.23,0.1,6438,2019-03-25 16:59:42:254
-1.4,0.44,13.56,-1.33,-1.07,3.77,-0.21,-0.23,0.1,6443,2019-03-25 16:59:42:259
-1.4,0.44,13.56,-1.33,-1.07,3.77,-0.21,-0.23,0.1,6449,2019-03-25 16:59:42:265
-1.4,0.44,13.56,-1.33,-1.07,3.77,-0.21,-0.23,0.1,6453,2019-03-25 16:59:42:269
0.83,-1.91,10.37,0.89,-3.43,0.41,-0.11,-0.09,0.11,6459,2019-03-25 16:59:42:275
0.83,-1.91,10.37,0.89,-3.43,0.41,-0.11,-0.09,0.11,6467,2019-03-25 16:59:42:283
0.83,-1.91,10.37,0.89,-3.43,0.41,-0.11,-0.09,0.11,6468,2019-03-25 16:59:42:284
0.54,-2.81,13.3,0.53,-4.0,3.37,0.0,-0.02,0.17,6474,2019-03-25 16:59:42:290
0.54,-2.81,13.3,0.53,-4.0,3.37,0.0,-0.02,0.17,6483,2019-03-25 16:59:42:299
0.54,-2.81,13.3,0.53,-4.0,3.37,0.0,-0.02,0.17,6485,2019-03-25 16:59:42:301
4.51,3.28,12.84,3.95,2.09,2.65,0.02,-0.03,0.16,6489,2019-03-25 16:59:42:305
4.51,3.28,12.84,3.95,2.09,2.65,0.02,-0.03,0.16,6500,2019-03-25 16:59:42:316
4.51,3.28,12.84,3.95,2.09,2.65,0.02,-0.03,0.16,6501,2019-03-25 16:59:42:317
4.51,3.28,12.84,3.95,2.09,2.65,0.02,-0.03,0.16,6504,2019-03-25 16:59:42:320
4.51,3.28,12.84,3.95,2.09,2.65,0.02,-0.03,0.16,6509,2019-03-25 16:59:42:325
4.51,3.28,12.84,3.95,2.09,2.65,0.02,-0.03,0.16,6514,2019-03-25 16:59:42:330
1.21,4.99,9.14,0.52,3.49,-1.21,0.21,-0.01,-0.02,6519,2019-03-25 16:59:42:335
1.21,4.99,9.14,0.52,3.49,-1.21,0.21,-0.01,-0.02,6524,2019-03-25 16:59:42:340
1.21,4.99,9.14,0.52,3.49,-1.21,0.12,0.01,-0.06,6529,2019-03-25 16:59:42:345
1.21,4.99,9.14,-0.47,2.09,-1.71,0.12,0.01,-0.06,6535,2019-03-25 16:59:42:351
1.21,4.99,9.14,-0.47,2.09,-1.71,0.12,0.01,-0.06,6542,2019-03-25 16:59:42:358
1.21,4.99,9.14,-0.47,2.09,-1.71,0.12,0.01,-0.06,6546,2019-03-25 16:59:42:362
1.21,4.99,9.14,-0.47,2.09,-1.71,0.12,0.01,-0.06,6549,2019-03-25 16:59:42:365
0.03,2.11,9.06,-0.55,0.49,-1.0,0.08,0.03,-0.15,6554,2019-03-25 16:59:42:370
0.03,2.11,9.06,-0.55,0.49,-1.0,0.08,0.03,-0.15,6560,2019-03-25 16:59:42:376
0.03,2.11,9.06,-0.55,0.49,-1.0,0.08,0.03,-0.15,6564,2019-03-25 16:59:42:380
0.03,2.11,9.06,-0.55,0.49,-1.0,0.08,0.03,-0.15,6569,2019-03-25 16:59:42:385
0.03,2.11,9.06,-0.55,0.49,-1.0,0.08,0.03,-0.15,6574,2019-03-25 16:59:42:390
-1.19,0.3,12.39,-1.8,-1.06,2.24,0.02,-0.03,-0.13,6579,2019-03-25 16:59:42:395
-1.19,0.3,12.39,-1.8,-1.06,2.24,0.02,-0.03,-0.13,6587,2019-03-25 16:59:42:403
-1.19,0.3,12.39,-1.8,-1.06,2.24,0.02,-0.03,-0.13,6589,2019-03-25 16:59:42:405
1.57,-3.86,6.12,0.96,-4.77,-3.88,0.14,0.01,-0.11,6595,2019-03-25 16:59:42:411
1.57,-3.86,6.12,0.96,-4.77,-3.88,0.14,0.01,-0.11,6599,2019-03-25 16:59:42:415
1.57,-3.86,6.12,0.96,-4.77,-3.88,0.14,0.01,-0.11,6603,2019-03-25 16:59:42:419
1.57,-3.86,6.12,0.96,-4.77,-3.88,0.14,0.01,-0.11,6609,2019-03-25 16:59:42:425
0.95,-1.47,11.67,0.25,-2.25,1.22,-0.02,-0.07,-0.02,6614,2019-03-25 16:59:42:430
0.95,-1.47,11.67,0.25,-2.25,1.22,-0.02,-0.07,-0.02,6624,2019-03-25 16:59:42:440
0.95,-1.47,11.67,0.25,-2.25,1.22,-0.02,-0.07,-0.02,6625,2019-03-25 16:59:42:441
0.95,-1.47,11.67,0.25,-2.25,1.22,-0.02,-0.07,-0.02,6629,2019-03-25 16:59:42:445
1.2,-0.62,6.7,0.26,-1.28,-3.49,0.07,-0.08,-0.05,6635,2019-03-25 16:59:42:451
1.2,-0.62,6.7,0.26,-1.28,-3.49,0.07,-0.08,-0.05,6640,2019-03-25 16:59:42:456
1.2,-0.62,6.7,0.26,-1.28,-3.49,0.07,-0.08,-0.05,6645,2019-03-25 16:59:42:461
1.2,-0.62,6.7,0.26,-1.28,-3.49,0.07,-0.08,-0.05,6649,2019-03-25 16:59:42:465
1.2,-0.62,6.7,0.26,-1.28,-3.49,0.07,-0.08,-0.05,6654,2019-03-25 16:59:42:470
0.58,0.68,18.81,-0.4,-0.03,8.17,0.01,-0.05,-0.04,6659,2019-03-25 16:59:42:475
0.58,0.68,18.81,-0.4,-0.03,8.17,0.01,-0.05,-0.04,6666,2019-03-25 16:59:42:482
0.58,0.68,18.81,-0.4,-0.03,8.17,0.01,-0.05,-0.04,6670,2019-03-25 16:59:42:486
0.58,0.68,18.81,-0.4,-0.03,8.17,0.01,-0.05,-0.04,6674,2019-03-25 16:59:42:490
0.58,0.68,18.81,0.75,-1.7,-9.4,0.01,-0.05,-0.04,6682,2019-03-25 16:59:42:498
0.58,0.68,18.81,0.75,-1.7,-9.4,0.01,-0.05,-0.04,6684,2019-03-25 16:59:42:500
-1.06,3.28,12.0,0.75,-1.7,-9.4,0.01,-0.05,-0.04,6689,2019-03-25 16:59:42:505
-1.06,3.28,12.0,-1.86,2.44,2.41,-0.04,-0.21,0.03,6694,2019-03-25 16:59:42:510
-1.06,3.28,12.0,-1.86,2.44,2.41,-0.04,-0.21,0.03,6699,2019-03-25 16:59:42:515
-1.06,3.28,12.0,-1.86,2.44,2.41,-0.04,-0.21,0.03,6704,2019-03-25 16:59:42:520
0.96,1.2,14.96,0.34,0.66,5.04,-0.1,-0.1,0.04,6710,2019-03-25 16:59:42:526
0.96,1.2,14.96,0.34,0.66,5.04,-0.1,-0.1,0.04,6714,2019-03-25 16:59:42:530
0.96,1.2,14.96,0.34,0.66,5.04,-0.1,-0.1,0.04,6719,2019-03-25 16:59:42:535
0.96,1.2,14.96,0.34,0.66,5.04,-0.1,-0.1,0.04,6724,2019-03-25 16:59:42:540
1.06,0.14,10.95,0.43,0.0,0.9,0.09,-0.06,-0.06,6729,2019-03-25 16:59:42:545
1.06,0.14,10.95,0.43,0.0,0.9,0.09,-0.06,-0.06,6734,2019-03-25 16:59:42:550
1.06,0.14,10.95,0.43,0.0,0.9,0.09,-0.06,-0.06,6740,2019-03-25 16:59:42:556
1.06,0.14,10.95,0.43,0.0,0.9,0.09,-0.06,-0.06,6745,2019-03-25 16:59:42:561
0.63,-1.35,9.59,-0.04,-1.13,-0.46,0.09,-0.03,-0.01,6749,2019-03-25 16:59:42:565
0.63,-1.35,9.59,-0.04,-1.13,-0.46,0.09,-0.03,-0.01,6754,2019-03-25 16:59:42:570
0.63,-1.35,9.59,-0.04,-1.13,-0.46,0.09,-0.03,-0.01,6759,2019-03-25 16:59:42:575
0.63,-1.35,9.59,-0.04,-1.13,-0.46,0.09,-0.03,-0.01,6764,2019-03-25 16:59:42:580
0.63,-1.35,9.59,-0.04,-1.13,-0.46,0.09,-0.03,-0.01,6769,2019-03-25 16:59:42:585
0.63,-1.35,9.59,-0.04,-1.13,-0.46,0.09,-0.03,-0.01,6773,2019-03-25 16:59:42:589
1.69,-0.41,10.51,0.85,-0.03,0.58,0.0,0.03,0.07,6779,2019-03-25 16:59:42:595
1.69,-0.41,10.51,0.85,-0.03,0.58,0.0,0.03,0.07,6785,2019-03-25 16:59:42:601
1.69,-0.41,10.51,0.85,-0.03,0.58,0.03,0.0,0.11,6789,2019-03-25 16:59:42:605
1.69,-0.41,10.51,-0.48,0.71,-0.56,0.03,0.0,0.11,6794,2019-03-25 16:59:42:610
1.69,-0.41,10.51,-0.48,0.71,-0.56,0.03,0.0,0.11,6799,2019-03-25 16:59:42:615
1.69,-0.41,10.51,-0.48,0.71,-0.56,0.03,0.0,0.11,6804,2019-03-25 16:59:42:620
0.12,-0.01,8.89,-0.55,-0.11,-1.26,0.1,0.04,0.07,6809,2019-03-25 16:59:42:625
0.12,-0.01,8.89,-0.55,-0.11,-1.26,0.1,0.04,0.07,6814,2019-03-25 16:59:42:630
0.12,-0.01,8.89,-0.55,-0.11,-1.26,0.1,0.04,0.07,6818,2019-03-25 16:59:42:634
0.12,-0.01,8.89,-0.55,-0.11,-1.26,0.1,0.04,0.07,6826,2019-03-25 16:59:42:642
0.12,-0.01,8.89,-0.55,-0.11,-1.26,0.1,0.04,0.07,6829,2019-03-25 16:59:42:645
0.84,0.23,9.94,0.2,0.0,-0.41,0.08,0.06,0.08,6835,2019-03-25 16:59:42:651
0.84,0.23,9.94,0.2,0.0,-0.41,0.08,0.06,0.08,6838,2019-03-25 16:59:42:654
0.84,0.23,9.94,0.2,0.0,-0.41,0.08,0.06,0.08,6849,2019-03-25 16:59:42:665
0.84,0.23,9.94,0.2,0.0,-0.41,0.08,0.06,0.08,6850,2019-03-25 16:59:42:666
1.46,-1.19,7.91,0.75,-1.31,-1.57,0.0,0.1,0.09,6856,2019-03-25 16:59:42:672
1.46,-1.19,7.91,0.75,-1.31,-1.57,0.0,0.1,0.09,6864,2019-03-25 16:59:42:680
1.46,-1.19,7.91,0.75,-1.31,-1.57,0.0,0.1,0.09,6864,2019-03-25 16:59:42:680
1.46,-1.19,7.91,0.75,-1.31,-1.57,0.0,0.1,0.09,6874,2019-03-25 16:59:42:690
1.46,-1.19,7.91,0.75,-1.31,-1.57,0.0,0.1,0.09,6874,2019-03-25 16:59:42:690
1.61,-0.44,12.81,0.93,-0.54,2.9,-0.09,0.11,0.12,6879,2019-03-25 16:59:42:695
1.61,-0.44,12.81,0.93,-0.54,2.9,-0.09,0.11,0.12,6884,2019-03-25 16:59:42:700
1.61,-0.44,12.81,0.93,-0.54,2.9,-0.09,0.11,0.12,6889,2019-03-25 16:59:42:705
1.61,-0.44,12.81,0.93,-0.54,2.9,-0.09,0.11,0.12,6896,2019-03-25 16:59:42:712
1.61,-0.44,12.81,0.93,-0.54,2.9,-0.09,0.11,0.12,6901,2019-03-25 16:59:42:717
1.61,-0.44,12.81,0.93,-0.54,2.9,-0.09,0.11,0.12,6904,2019-03-25 16:59:42:720
0.21,-0.15,8.41,-0.58,0.1,-1.45,0.04,0.04,0.09,6910,2019-03-25 16:59:42:726
0.21,-0.15,8.41,-0.58,0.1,-1.45,0.04,0.04,0.09,6914,2019-03-25 16:59:42:730
0.21,-0.15,8.41,-0.58,0.1,-1.45,0.04,0.04,0.09,6919,2019-03-25 16:59:42:735
0.22,-1.32,10.06,-0.4,-0.77,0.27,0.01,-0.02,0.05,6924,2019-03-25 16:59:42:740
0.22,-1.32,10.06,-0.4,-0.77,0.27,0.01,-0.02,0.05,6929,2019-03-25 16:59:42:745
0.22,-1.32,10.06,-0.4,-0.77,0.27,0.01,-0.02,0.05,6934,2019-03-25 16:59:42:750
1.83,0.41,8.68,-0.4,-0.77,0.27,0.01,-0.02,0.05,6939,2019-03-25 16:59:42:755
1.83,0.41,8.68,1.17,0.84,-1.23,0.03,0.03,0.02,6946,2019-03-25 16:59:42:762
1.83,0.41,8.68,1.17,0.84,-1.23,0.03,0.03,0.02,6950,2019-03-25 16:59:42:766
1.83,0.41,8.68,1.17,0.84,-1.23,0.03,0.03,0.02,6954,2019-03-25 16:59:42:770
1.83,0.41,8.68,1.17,0.84,-1.23,0.03,0.03,0.02,6959,2019-03-25 16:59:42:775
3.9,1.27,11.84,3.07,1.52,1.79,-0.03,0.09,-0.01,6964,2019-03-25 16:59:42:780
3.9,1.27,11.84,3.07,1.52,1.79,-0.03,0.09,-0.01,6969,2019-03-25 16:59:42:785
3.9,1.27,11.84,3.07,1.52,1.79,-0.03,0.09,-0.01,6974,2019-03-25 16:59:42:790
3.9,1.27,11.84,3.07,1.52,1.79,-0.03,0.09,-0.01,6979,2019-03-25 16:59:42:795
0.65,-0.61,9.56,-0.27,-0.37,-0.36,-0.05,0.09,-0.13,6984,2019-03-25 16:59:42:800
0.65,-0.61,9.56,-0.27,-0.37,-0.36,-0.05,0.09,-0.13,6989,2019-03-25 16:59:42:805
0.65,-0.61,9.56,-0.27,-0.37,-0.36,-0.05,0.09,-0.13,6994,2019-03-25 16:59:42:810
-1.55,-0.66,7.58,-0.27,-0.37,-0.36,0.02,0.02,-0.07,7001,2019-03-25 16:59:42:817
-1.55,-0.66,7.58,-2.3,-0.36,-2.32,0.02,0.02,-0.07,7006,2019-03-25 16:59:42:822
-1.55,-0.66,7.58,-2.3,-0.36,-2.32,0.02,0.02,-0.07,7009,2019-03-25 16:59:42:825
-1.55,-0.66,7.58,-2.3,-0.36,-2.32,0.02,0.02,-0.07,7014,2019-03-25 16:59:42:830
-0.86,2.26,10.76,-1.51,2.48,0.89,0.06,0.0,-0.02,7020,2019-03-25 16:59:42:836
-0.86,2.26,10.76,-1.51,2.48,0.89,0.06,0.0,-0.02,7024,2019-03-25 16:59:42:840
-0.86,2.26,10.76,-1.51,2.48,0.89,0.06,0.0,-0.02,7032,2019-03-25 16:59:42:848
-0.86,2.26,10.76,-1.51,2.48,0.89,0.06,0.0,-0.02,7035,2019-03-25 16:59:42:851
0.4,1.0,7.81,-0.22,0.93,-2.19,0.24,-0.09,-0.03,7038,2019-03-25 16:59:42:854
0.4,1.0,7.81,-0.22,0.93,-2.19,0.24,-0.09,-0.03,7044,2019-03-25 16:59:42:860
0.4,1.0,7.81,-0.22,0.93,-2.19,0.24,-0.09,-0.03,7049,2019-03-25 16:59:42:865
0.4,1.0,7.81,-0.22,0.93,-2.19,0.24,-0.09,-0.03,7054,2019-03-25 16:59:42:870
-0.22,2.72,9.71,-0.7,2.25,-0.22,0.3,-0.15,-0.07,7060,2019-03-25 16:59:42:876
-0.22,2.72,9.71,-0.7,2.25,-0.22,0.3,-0.15,-0.07,7067,2019-03-25 16:59:42:883
-0.22,2.72,9.71,-0.7,2.25,-0.22,0.3,-0.15,-0.07,7068,2019-03-25 16:59:42:884
-0.22,2.72,9.71,-0.7,2.25,-0.22,0.18,-0.12,-0.08,7074,2019-03-25 16:59:42:890
-0.22,2.72,9.71,-0.7,2.25,-0.22,0.18,-0.12,-0.08,7079,2019-03-25 16:59:42:895
-0.22,2.72,9.71,-0.7,2.25,-0.22,0.18,-0.12,-0.08,7084,2019-03-25 16:59:42:900
-0.22,2.72,9.71,-0.7,2.25,-0.22,0.18,-0.12,-0.08,7089,2019-03-25 16:59:42:905
1.51,2.92,8.51,0.96,2.09,-1.25,0.05,-0.07,-0.07,7094,2019-03-25 16:59:42:910
1.51,2.92,8.51,0.96,2.09,-1.25,-0.17,0.01,-0.08,7100,2019-03-25 16:59:42:916
1.51,2.92,8.51,0.96,2.09,-1.25,-0.17,0.01,-0.08,7104,2019-03-25 16:59:42:920
1.51,2.92,8.51,0.96,2.09,-1.25,-0.17,0.01,-0.08,7109,2019-03-25 16:59:42:925
1.51,2.92,8.51,0.96,2.09,-1.25,-0.17,0.01,-0.08,7115,2019-03-25 16:59:42:931
0.16,1.93,10.79,-0.49,0.58,1.15,-0.2,0.02,-0.06,7120,2019-03-25 16:59:42:936
0.16,1.93,10.79,-0.49,0.58,1.15,-0.2,0.02,-0.06,7125,2019-03-25 16:59:42:941
0.16,1.93,10.79,-0.49,0.58,1.15,-0.2,0.02,-0.06,7129,2019-03-25 16:59:42:945
0.16,1.93,10.79,-0.49,0.58,1.15,-0.2,0.02,-0.06,7134,2019-03-25 16:59:42:950
0.0,-0.34,11.02,-0.59,-1.63,1.42,-0.17,0.03,0.0,7139,2019-03-25 16:59:42:955
0.0,-0.34,11.02,-0.59,-1.63,1.42,-0.17,0.03,0.0,7144,2019-03-25 16:59:42:960
0.0,-0.34,11.02,-0.59,-1.63,1.42,-0.17,0.03,0.0,7149,2019-03-25 16:59:42:965
0.0,-0.34,11.02,-0.59,-1.63,1.42,-0.17,0.03,0.0,7154,2019-03-25 16:59:42:970
-0.56,-0.36,11.15,-0.78,-1.52,1.5,-0.13,0.06,0.1,7159,2019-03-25 16:59:42:975
-0.56,-0.36,11.15,-0.78,-1.52,1.5,-0.13,0.06,0.1,7164,2019-03-25 16:59:42:980
-0.56,-0.36,11.15,-0.78,-1.52,1.5,-0.13,0.06,0.1,7170,2019-03-25 16:59:42:986
-0.56,-0.36,11.15,-0.78,-1.52,1.5,-0.13,0.06,0.1,7173,2019-03-25 16:59:42:989
-1.37,2.04,10.85,-0.78,-1.52,1.5,0.03,0.1,0.22,7179,2019-03-25 16:59:42:995
-1.37,2.04,10.85,-1.28,0.81,1.09,0.03,0.1,0.22,7185,2019-03-25 16:59:43:001
-1.37,2.04,10.85,-1.28,0.81,1.09,0.03,0.1,0.22,7189,2019-03-25 16:59:43:005
-1.37,2.04,10.85,-1.28,0.81,1.09,0.03,0.1,0.22,7195,2019-03-25 16:59:43:011
-2.1,1.06,7.28,-1.28,0.81,1.09,0.1,0.14,0.33,7199,2019-03-25 16:59:43:015
-2.1,1.06,7.28,-1.99,-0.3,-2.39,0.1,0.14,0.33,7205,2019-03-25 16:59:43:021
-2.1,1.06,7.28,-1.99,-0.3,-2.39,0.1,0.14,0.33,7209,2019-03-25 16:59:43:025
-2.1,1.06,7.28,-1.99,-0.3,-2.39,0.1,0.14,0.33,7214,2019-03-25 16:59:43:030
1.49,2.37,8.7,1.53,0.81,-0.94,-0.04,0.16,0.46,7219,2019-03-25 16:59:43:035
1.49,2.37,8.7,1.53,0.81,-0.94,-0.04,0.16,0.46,7224,2019-03-25 16:59:43:040
1.49,2.37,8.7,1.53,0.81,-0.94,-0.04,0.16,0.46,7229,2019-03-25 16:59:43:045
1.49,2.37,8.7,1.53,0.81,-0.94,-0.04,0.16,0.46,7234,2019-03-25 16:59:43:050
-1.07,2.52,11.13,-0.98,0.89,1.43,-0.05,0.06,0.44,7239,2019-03-25 16:59:43:055
-1.07,2.52,11.13,-0.98,0.89,1.43,-0.05,0.06,0.44,7244,2019-03-25 16:59:43:060
-1.07,2.52,11.13,-0.98,0.89,1.43,-0.05,0.06,0.44,7249,2019-03-25 16:59:43:065
-1.07,2.52,11.13,-0.98,0.89,1.43,-0.05,0.06,0.44,7254,2019-03-25 16:59:43:070
-1.07,2.52,11.13,-0.98,0.89,1.43,-0.05,0.06,0.44,7259,2019-03-25 16:59:43:075
-1.07,2.52,11.13,-0.98,0.89,1.43,-0.05,0.06,0.44,7265,2019-03-25 16:59:43:081
-1.07,2.52,11.13,-0.98,0.89,1.43,-0.05,0.06,0.44,7269,2019-03-25 16:59:43:085
-0.19,0.71,8.14,-0.2,-0.8,-1.39,-0.06,0.03,0.35,7274,2019-03-25 16:59:43:090
-0.19,0.71,8.14,-0.2,-0.8,-1.39,-0.06,0.03,0.35,7280,2019-03-25 16:59:43:096
-0.19,0.71,8.14,-0.2,-0.8,-1.39,-0.06,0.03,0.35,7285,2019-03-25 16:59:43:101
-0.19,0.71,8.14,-0.2,-0.8,-1.39,-0.06,0.03,0.35,7289,2019-03-25 16:59:43:105
-0.19,0.71,8.14,-0.2,-0.8,-1.39,-0.06,0.03,0.35,7295,2019-03-25 16:59:43:111
3.93,0.93,10.46,3.88,-0.35,0.64,-0.2,0.08,0.07,7299,2019-03-25 16:59:43:115
3.93,0.93,10.46,3.88,-0.35,0.64,-0.2,0.08,0.07,7304,2019-03-25 16:59:43:120
3.93,0.93,10.46,3.88,-0.35,0.64,-0.2,0.08,0.07,7309,2019-03-25 16:59:43:125
3.93,0.93,10.46,3.88,-0.35,0.64,-0.2,0.08,0.07,7314,2019-03-25 16:59:43:130
4.07,0.67,9.67,3.88,-0.35,0.64,-0.22,0.1,0.02,7319,2019-03-25 16:59:43:135
4.07,0.67,9.67,3.65,-0.45,-0.23,-0.22,0.1,0.02,7323,2019-03-25 16:59:43:139
4.07,0.67,9.67,3.65,-0.45,-0.23,-0.22,0.1,0.02,7329,2019-03-25 16:59:43:145
4.07,0.67,9.67,3.65,-0.45,-0.23,-0.22,0.1,0.02,7334,2019-03-25 16:59:43:150
4.07,0.67,9.67,3.65,-0.45,-0.23,-0.22,0.1,0.02,7339,2019-03-25 16:59:43:155
4.07,0.67,9.67,3.65,-0.45,-0.23,-0.22,0.1,0.02,7344,2019-03-25 16:59:43:160
4.07,0.67,9.67,3.65,-0.45,-0.23,-0.22,0.1,0.02,7349,2019-03-25 16:59:43:165
1.88,0.83,10.01,1.26,-0.32,0.2,-0.22,0.07,0.05,7354,2019-03-25 16:59:43:170
1.88,0.83,10.01,1.26,-0.32,0.2,-0.22,0.07,0.05,7359,2019-03-25 16:59:43:175
1.88,0.83,10.01,1.26,-0.32,0.2,-0.22,0.07,0.05,7364,2019-03-25 16:59:43:180
1.88,0.83,10.01,1.26,-0.32,0.2,-0.22,0.07,0.05,7369,2019-03-25 16:59:43:185
1.88,0.83,10.01,1.26,-0.32,0.2,-0.22,0.07,0.05,7374,2019-03-25 16:59:43:190
0.69,1.9,9.88,-0.18,0.45,0.45,-0.26,0.04,-0.04,7379,2019-03-25 16:59:43:195
0.69,1.9,9.88,-0.18,0.45,0.45,-0.26,0.04,-0.04,7384,2019-03-25 16:59:43:200
0.69,1.9,9.88,-0.18,0.45,0.45,-0.26,0.04,-0.04,7389,2019-03-25 16:59:43:205
0.69,1.9,9.88,-0.18,0.45,0.45,-0.26,0.04,-0.04,7394,2019-03-25 16:59:43:210
0.69,1.9,9.88,-0.18,0.45,0.45,-0.26,0.04,-0.04,7399,2019-03-25 16:59:43:215
0.69,1.9,9.88,-0.18,0.45,0.45,-0.26,0.04,-0.04,7405,2019-03-25 16:59:43:221
0.69,1.9,9.88,-0.18,0.45,0.45,-0.26,0.04,-0.04,7409,2019-03-25 16:59:43:225
0.26,1.28,10.31,-0.85,-0.2,0.85,-0.26,-0.09,-0.16,7414,2019-03-25 16:59:43:230
0.26,1.28,10.31,-0.85,-0.2,0.85,-0.26,-0.09,-0.16,7419,2019-03-25 16:59:43:235
0.26,1.28,10.31,-0.85,-0.2,0.85,-0.26,-0.09,-0.16,7424,2019-03-25 16:59:43:240
0.26,1.28,10.31,-0.85,-0.2,0.85,-0.26,-0.09,-0.16,7429,2019-03-25 16:59:43:245
0.26,1.28,10.31,-0.85,-0.2,0.85,-0.26,-0.09,-0.16,7434,2019-03-25 16:59:43:250
0.26,1.28,10.31,-0.85,-0.2,0.85,-0.26,-0.09,-0.16,7439,2019-03-25 16:59:43:255
0.26,1.28,10.31,-0.85,-0.2,0.85,-0.26,-0.09,-0.16,7444,2019-03-25 16:59:43:260
1.91,-0.68,9.47,0.53,-1.76,-0.34,-0.05,-0.05,-0.3,7452,2019-03-25 16:59:43:268
1.91,-0.68,9.47,0.53,-1.76,-0.34,-0.05,-0.05,-0.3,7454,2019-03-25 16:59:43:270
1.91,-0.68,9.47,0.53,-1.76,-0.34,-0.05,-0.05,-0.3,7459,2019-03-25 16:59:43:275
1.91,-0.68,9.47,0.53,-1.76,-0.34,-0.05,-0.05,-0.3,7464,2019-03-25 16:59:43:280
1.91,-0.68,9.47,0.53,-1.76,-0.34,-0.05,-0.05,-0.3,7469,2019-03-25 16:59:43:285
0.29,0.41,12.31,-1.09,-0.48,2.26,0.05,-0.09,-0.29,7474,2019-03-25 16:59:43:290
0.29,0.41,12.31,-1.09,-0.48,2.26,0.05,-0.09,-0.29,7480,2019-03-25 16:59:43:296
0.29,0.41,12.31,-1.09,-0.48,2.26,0.05,-0.09,-0.29,7484,2019-03-25 16:59:43:300
0.29,0.41,12.31,-1.09,-0.48,2.26,0.05,-0.09,-0.29,7489,2019-03-25 16:59:43:305
0.29,0.41,12.31,-1.09,-0.48,2.26,0.05,-0.09,-0.29,7494,2019-03-25 16:59:43:310
-0.57,-1.06,9.95,-1.6,-1.64,-0.24,0.09,0.03,-0.15,7499,2019-03-25 16:59:43:315
-0.57,-1.06,9.95,-1.6,-1.64,-0.24,0.09,0.03,-0.15,7504,2019-03-25 16:59:43:320
-0.57,-1.06,9.95,-1.6,-1.64,-0.24,0.09,0.03,-0.15,7509,2019-03-25 16:59:43:325
-0.57,-1.06,9.95,-1.6,-1.64,-0.24,0.09,0.03,-0.15,7514,2019-03-25 16:59:43:330
-0.63,-0.42,10.53,-1.11,-0.87,0.42,-0.11,0.13,0.01,7519,2019-03-25 16:59:43:335
-0.63,-0.42,10.53,-1.11,-0.87,0.42,-0.11,0.13,0.01,7524,2019-03-25 16:59:43:340
-0.52,-0.77,8.82,-1.11,-0.87,0.42,-0.13,0.11,0.09,7529,2019-03-25 16:59:43:345
-0.52,-0.77,8.82,-0.78,-1.11,-1.24,-0.13,0.11,0.09,7539,2019-03-25 16:59:43:355
-0.52,-0.77,8.82,-0.78,-1.11,-1.24,-0.13,0.11,0.09,7540,2019-03-25 16:59:43:356
-0.52,-0.77,8.82,-0.78,-1.11,-1.24,-0.13,0.11,0.09,7545,2019-03-25 16:59:43:361
-0.52,-0.77,8.82,-0.78,-1.11,-1.24,-0.13,0.11,0.09,7550,2019-03-25 16:59:43:366
-0.52,-0.77,8.82,-0.78,-1.11,-1.24,-0.13,0.11,0.09,7554,2019-03-25 16:59:43:370
-0.66,-0.62,11.17,-0.85,-0.74,1.11,-0.06,0.01,0.12,7559,2019-03-25 16:59:43:375
-0.66,-0.62,11.17,-0.85,-0.74,1.11,-0.06,0.01,0.12,7564,2019-03-25 16:59:43:380
-0.66,-0.62,11.17,-0.85,-0.74,1.11,-0.06,0.01,0.12,7569,2019-03-25 16:59:43:385
-0.66,-0.62,11.17,-0.85,-0.74,1.11,-0.06,0.01,0.12,7574,2019-03-25 16:59:43:390
-0.66,-0.62,11.17,-0.85,-0.74,1.11,-0.06,0.01,0.12,7579,2019-03-25 16:59:43:395
-0.66,-0.62,11.17,-0.85,-0.74,1.11,-0.06,0.01,0.12,7584,2019-03-25 16:59:43:400
-0.66,-0.62,11.17,-0.85,-0.74,1.11,-0.06,0.01,0.12,7589,2019-03-25 16:59:43:405
-0.66,-0.62,11.17,-0.85,-0.74,1.11,-0.06,0.01,0.12,7594,2019-03-25 16:59:43:410
1.17,-0.48,10.55,1.03,-0.39,0.39,-0.07,0.06,0.11,7599,2019-03-25 16:59:43:415
1.17,-0.48,10.55,1.03,-0.39,0.39,-0.07,0.06,0.11,7606,2019-03-25 16:59:43:422
1.17,-0.48,10.55,1.03,-0.39,0.39,-0.07,0.06,0.11,7609,2019-03-25 16:59:43:425
1.17,-0.48,10.55,1.03,-0.39,0.39,-0.07,0.06,0.11,7614,2019-03-25 16:59:43:430
1.82,1.19,11.69,1.61,1.41,1.34,-0.07,0.04,0.08,7620,2019-03-25 16:59:43:436
1.82,1.19,11.69,1.61,1.41,1.34,-0.07,0.04,0.08,7624,2019-03-25 16:59:43:440
1.82,1.19,11.69,1.61,1.41,1.34,-0.07,0.04,0.08,7629,2019-03-25 16:59:43:445
1.82,1.19,11.69,1.61,1.41,1.34,-0.07,0.04,0.08,7636,2019-03-25 16:59:43:452
0.77,-0.27,10.15,0.61,0.06,0.14,0.03,0.0,0.0,7639,2019-03-25 16:59:43:455
0.77,-0.27,10.15,0.61,0.06,0.14,0.03,0.0,0.0,7644,2019-03-25 16:59:43:460
0.77,-0.27,10.15,0.61,0.06,0.14,0.03,0.0,0.0,7650,2019-03-25 16:59:43:466
0.77,-0.27,10.15,0.61,0.06,0.14,0.03,0.0,0.0,7654,2019-03-25 16:59:43:470
0.77,-0.27,10.15,0.61,0.06,0.14,0.03,0.0,0.0,7659,2019-03-25 16:59:43:475
0.77,-0.27,10.15,0.61,0.06,0.14,0.03,0.0,0.0,7665,2019-03-25 16:59:43:481
-0.21,-1.11,9.87,-0.26,-0.72,-0.02,0.04,0.07,0.0,7669,2019-03-25 16:59:43:485
-0.21,-1.11,9.87,-0.26,-0.72,-0.02,0.04,0.07,0.0,7675,2019-03-25 16:59:43:491
-0.21,-1.11,9.87,-0.26,-0.72,-0.02,0.08,0.04,0.04,7679,2019-03-25 16:59:43:495
-0.21,-1.11,9.87,0.02,0.04,0.62,0.08,0.04,0.04,7684,2019-03-25 16:59:43:500
-0.21,-1.11,9.87,0.02,0.04,0.62,0.08,0.04,0.04,7691,2019-03-25 16:59:43:507
-0.21,-1.11,9.87,0.02,0.04,0.62,0.08,0.04,0.04,7694,2019-03-25 16:59:43:510
1.05,0.76,9.01,0.82,1.04,-0.83,0.19,0.05,0.04,7699,2019-03-25 16:59:43:515
1.05,0.76,9.01,0.82,1.04,-0.83,0.19,0.05,0.04,7704,2019-03-25 16:59:43:520
1.05,0.76,9.01,0.82,1.04,-0.83,0.19,0.05,0.04,7709,2019-03-25 16:59:43:525
1.05,0.76,9.01,0.82,1.04,-0.83,0.19,0.05,0.04,7715,2019-03-25 16:59:43:531
3.97,5.63,9.34,3.35,5.33,-0.51,0.18,0.04,-0.04,7720,2019-03-25 16:59:43:536
3.97,5.63,9.34,3.35,5.33,-0.51,0.18,0.04,-0.04,7723,2019-03-25 16:59:43:539
3.97,5.63,9.34,3.35,5.33,-0.51,0.18,0.04,-0.04,7729,2019-03-25 16:59:43:545
3.97,5.63,9.34,3.35,5.33,-0.51,0.18,0.04,-0.04,7734,2019-03-25 16:59:43:550
3.97,5.63,9.34,3.35,5.33,-0.51,0.18,0.04,-0.04,7739,2019-03-25 16:59:43:555
3.97,5.63,9.34,3.35,5.33,-0.51,0.18,0.04,-0.04,7744,2019-03-25 16:59:43:560
1.22,2.25,7.47,0.49,1.56,-2.26,0.18,0.02,-0.33,7750,2019-03-25 16:59:43:566
1.22,2.25,7.47,0.49,1.56,-2.26,0.18,0.02,-0.33,7755,2019-03-25 16:59:43:571
1.22,2.25,7.47,0.49,1.56,-2.26,0.18,0.02,-0.33,7762,2019-03-25 16:59:43:578
-2.49,1.78,2.67,-3.22,0.89,-6.71,0.05,-0.07,-0.29,7764,2019-03-25 16:59:43:580
-2.49,1.78,2.67,-3.22,0.89,-6.71,0.05,-0.07,-0.29,7771,2019-03-25 16:59:43:587
-2.49,1.78,2.67,-3.22,0.89,-6.71,0.05,-0.07,-0.29,7774,2019-03-25 16:59:43:590
-2.49,1.78,2.67,-3.22,0.89,-6.71,0.05,-0.07,-0.29,7779,2019-03-25 16:59:43:595
-2.49,1.78,2.67,-3.22,0.89,-6.71,0.05,-0.07,-0.29,7784,2019-03-25 16:59:43:600
0.37,-0.52,15.21,-3.22,0.89,-6.71,0.04,-0.03,-0.21,7789,2019-03-25 16:59:43:605
0.37,-0.52,15.21,-0.15,-1.44,5.49,0.04,-0.03,-0.21,7794,2019-03-25 16:59:43:610
0.37,-0.52,15.21,-0.15,-1.44,5.49,-0.13,0.24,-0.06,7800,2019-03-25 16:59:43:616
4.62,2.72,20.13,-0.15,-1.44,5.49,-0.13,0.24,-0.06,7806,2019-03-25 16:59:43:622
4.62,2.72,20.13,-0.15,-1.44,5.49,-0.13,0.24,-0.06,7809,2019-03-25 16:59:43:625
4.62,2.72,20.13,-0.15,-1.44,5.49,-0.13,0.24,-0.06,7814,2019-03-25 16:59:43:630
4.62,2.72,20.13,-0.15,-1.44,5.49,-0.13,0.24,-0.06,7819,2019-03-25 16:59:43:635
