ACCELEROMETER X (m/s²),ACCELEROMETER Y (m/s²),ACCELEROMETER Z (m/s²),LINEAR ACCELERATION X (m/s²),LINEAR ACCELERATION Y (m/s²),LINEAR ACCELERATION Z (m/s²),GYROSCOPE X (rad/s),GYROSCOPE Y (rad/s),GYROSCOPE Z (rad/s),Time since start in ms ,YYYY-MO-DD HH-MI-SS_SSS
-0.11,0.47,9.88,0.0,0.09,-0.04,0.0,0.0,-0.01,6,2019-04-03 15:48:15:532
-0.11,0.47,9.88,0.0,0.09,-0.04,0.0,0.0,-0.01,10,2019-04-03 15:48:15:536
-0.14,0.29,9.97,-0.02,-0.08,0.04,0.0,0.0,-0.01,15,2019-04-03 15:48:15:541
-0.14,0.29,9.97,-0.02,-0.08,0.04,0.0,0.0,-0.01,19,2019-04-03 15:48:15:545
-0.14,0.29,9.97,-0.02,-0.08,0.04,0.0,0.0,-0.01,25,2019-04-03 15:48:15:551
-0.15,0.33,9.85,-0.02,-0.08,0.04,0.01,0.0,-0.01,30,2019-04-03 15:48:15:556
-0.15,0.33,9.85,-0.04,-0.04,-0.06,0.01,0.0,-0.01,35,2019-04-03 15:48:15:561
-0.15,0.33,9.85,-0.04,-0.04,-0.06,0.01,0.0,-0.01,40,2019-04-03 15:48:15:566
-0.15,0.33,9.85,-0.04,-0.04,-0.06,0.01,0.0,-0.01,45,2019-04-03 15:48:15:571
-0.15,0.33,9.85,-0.04,-0.04,-0.06,0.01,0.0,-0.01,50,2019-04-03 15:48:15:576
-0.15,0.33,9.85,-0.04,-0.04,-0.06,0.01,0.0,-0.01,56,2019-04-03 15:48:15:582
-0.15,0.33,9.85,-0.04,-0.04,-0.06,0.01,0.0,-0.01,60,2019-04-03 15:48:15:586
-0.15,0.4,9.86,-0.03,0.03,-0.05,0.0,0.0,-0.01,65,2019-04-03 15:48:15:591
-0.15,0.4,9.86,-0.03,0.03,-0.05,0.0,0.0,-0.01,70,2019-04-03 15:48:15:596
-0.15,0.4,9.86,-0.03,0.03,-0.05,0.0,0.0,-0.01,75,2019-04-03 15:48:15:601
-0.15,0.4,9.86,-0.03,0.03,-0.05,0.0,0.0,-0.01,79,2019-04-03 15:48:15:605
-0.14,0.33,9.94,-0.03,-0.03,0.02,0.0,0.0,0.0,85,2019-04-03 15:48:15:611
-0.14,0.33,9.94,-0.03,-0.03,0.02,0.0,0.0,0.0,91,2019-04-03 15:48:15:617
-0.15,0.34,9.91,-0.03,-0.02,0.0,0.0,0.0,-0.01,95,2019-04-03 15:48:15:621
-0.15,0.34,9.91,-0.03,-0.02,0.0,0.0,0.0,-0.01,100,2019-04-03 15:48:15:626
-0.15,0.34,9.91,-0.03,-0.02,0.0,0.0,0.0,-0.01,106,2019-04-03 15:48:15:632
-0.15,0.34,9.91,-0.03,-0.02,0.0,0.0,0.0,-0.01,109,2019-04-03 15:48:15:635
-0.15,0.34,9.91,-0.03,-0.02,0.0,0.0,0.0,-0.01,115,2019-04-03 15:48:15:641
-0.15,0.34,9.91,-0.03,-0.02,0.0,0.0,0.0,-0.01,120,2019-04-03 15:48:15:646
-0.15,0.38,9.91,-0.04,0.01,0.0,0.0,0.0,0.0,125,2019-04-03 15:48:15:651
-0.15,0.38,9.91,-0.04,0.01,0.0,0.0,0.0,0.0,130,2019-04-03 15:48:15:656
-0.15,0.38,9.91,-0.04,0.01,0.0,0.0,0.0,0.0,135,2019-04-03 15:48:15:661
-0.15,0.38,9.91,-0.04,0.01,0.0,0.0,0.0,0.0,140,2019-04-03 15:48:15:666
-0.13,0.32,9.91,-0.02,-0.03,0.0,0.0,0.0,0.0,145,2019-04-03 15:48:15:671
-0.13,0.32,9.91,-0.02,-0.03,0.0,0.0,0.0,0.0,150,2019-04-03 15:48:15:676
-0.13,0.32,9.91,-0.02,-0.03,0.0,0.0,0.0,0.0,155,2019-04-03 15:48:15:681
-0.13,0.32,9.91,-0.02,-0.03,0.0,0.0,0.0,0.0,160,2019-04-03 15:48:15:686
-0.18,0.4,9.92,-0.06,0.02,0.0,0.0,0.0,0.0,166,2019-04-03 15:48:15:692
-0.18,0.4,9.92,-0.06,0.02,0.0,0.0,0.0,0.0,170,2019-04-03 15:48:15:696
-0.18,0.4,9.92,-0.06,0.02,0.0,0.0,0.0,0.0,176,2019-04-03 15:48:15:702
-0.14,0.36,9.85,-0.06,0.02,0.0,0.0,0.0,0.0,180,2019-04-03 15:48:15:706
-0.14,0.36,9.85,-0.02,-0.01,-0.05,0.0,0.0,-0.01,184,2019-04-03 15:48:15:710
-0.14,0.36,9.85,-0.02,-0.01,-0.05,0.0,0.0,-0.01,190,2019-04-03 15:48:15:716
-0.08,0.37,9.89,-0.01,-0.02,-0.02,0.0,0.0,0.0,195,2019-04-03 15:48:15:721
-0.08,0.37,9.89,-0.01,-0.02,-0.02,0.0,0.0,0.0,199,2019-04-03 15:48:15:725
-0.08,0.37,9.89,-0.01,-0.02,-0.02,0.0,0.0,0.0,205,2019-04-03 15:48:15:731
-0.08,0.37,9.89,-0.01,-0.02,-0.02,0.0,0.0,0.0,211,2019-04-03 15:48:15:737
-0.1,0.34,9.87,0.0,-0.03,-0.03,0.0,0.0,-0.01,215,2019-04-03 15:48:15:741
-0.1,0.34,9.87,0.0,-0.03,-0.03,0.0,0.0,-0.01,219,2019-04-03 15:48:15:745
-0.1,0.34,9.87,0.0,-0.03,-0.03,0.0,0.0,-0.01,225,2019-04-03 15:48:15:751
-0.08,0.36,9.93,0.0,-0.03,-0.03,0.0,0.0,-0.01,230,2019-04-03 15:48:15:756
-0.08,0.36,9.93,0.02,-0.01,0.01,0.0,0.0,-0.01,235,2019-04-03 15:48:15:761
-0.08,0.36,9.93,0.02,-0.01,0.01,0.0,0.0,-0.01,241,2019-04-03 15:48:15:767
-0.08,0.36,9.93,0.02,-0.01,0.01,0.0,0.0,-0.01,245,2019-04-03 15:48:15:771
-0.08,0.36,9.93,0.02,-0.01,0.01,0.0,0.0,-0.01,249,2019-04-03 15:48:15:775
-0.08,0.36,9.93,0.02,-0.01,0.01,0.0,0.0,-0.01,255,2019-04-03 15:48:15:781
-0.09,0.38,9.93,0.01,0.0,0.01,0.0,0.0,-0.01,261,2019-04-03 15:48:15:787
-0.09,0.38,9.93,0.01,0.0,0.01,0.0,0.0,-0.01,265,2019-04-03 15:48:15:791
-0.09,0.38,9.93,0.01,0.0,0.01,0.0,0.0,-0.01,270,2019-04-03 15:48:15:796
-0.09,0.38,9.93,0.01,0.0,0.01,0.0,0.0,-0.01,275,2019-04-03 15:48:15:801
-0.09,0.38,9.93,0.0,0.0,0.01,0.0,0.0,-0.01,280,2019-04-03 15:48:15:806
-0.09,0.38,9.93,0.0,0.0,0.01,0.0,0.0,-0.01,285,2019-04-03 15:48:15:811
-0.09,0.38,9.93,0.0,0.0,0.01,0.0,0.0,-0.01,290,2019-04-03 15:48:15:816
-0.09,0.42,9.89,0.01,0.04,-0.01,0.0,0.0,-0.01,295,2019-04-03 15:48:15:821
-0.09,0.42,9.89,0.01,0.04,-0.01,0.0,0.0,-0.01,300,2019-04-03 15:48:15:826
-0.09,0.42,9.89,0.01,0.04,-0.01,0.0,0.0,-0.01,305,2019-04-03 15:48:15:831
-0.09,0.4,9.89,0.01,0.04,-0.01,0.0,0.0,-0.01,310,2019-04-03 15:48:15:836
-0.09,0.4,9.89,0.01,0.02,-0.01,0.0,0.0,0.0,316,2019-04-03 15:48:15:842
-0.09,0.4,9.89,0.01,0.02,-0.01,0.0,0.0,0.0,320,2019-04-03 15:48:15:846
-0.09,0.4,9.89,0.01,0.02,-0.01,0.0,0.0,0.0,326,2019-04-03 15:48:15:852
-0.08,0.42,9.95,0.01,0.02,-0.01,0.0,0.0,0.0,330,2019-04-03 15:48:15:856
-0.08,0.42,9.95,0.02,0.04,0.04,0.0,0.0,-0.01,335,2019-04-03 15:48:15:861
-0.08,0.42,9.95,0.02,0.04,0.04,0.0,0.0,-0.01,340,2019-04-03 15:48:15:866
-0.08,0.42,9.95,0.02,0.04,0.04,0.0,0.0,-0.01,345,2019-04-03 15:48:15:871
-0.05,0.39,9.88,0.04,0.01,-0.02,0.0,0.0,-0.01,350,2019-04-03 15:48:15:876
-0.05,0.39,9.88,0.04,0.01,-0.02,0.0,0.0,-0.01,355,2019-04-03 15:48:15:881
-0.05,0.39,9.88,0.04,0.01,-0.02,0.0,0.0,-0.01,360,2019-04-03 15:48:15:886
-0.05,0.39,9.88,0.04,0.01,-0.02,0.0,0.0,-0.01,365,2019-04-03 15:48:15:891
-0.05,0.39,9.88,0.04,0.01,-0.02,0.0,0.0,-0.01,370,2019-04-03 15:48:15:896
-0.05,0.39,9.88,0.04,0.01,-0.02,0.0,0.0,-0.01,375,2019-04-03 15:48:15:901
-0.08,0.37,9.92,0.04,0.01,-0.02,0.0,0.0,-0.01,380,2019-04-03 15:48:15:906
-0.08,0.37,9.92,0.02,0.0,0.01,0.0,0.0,-0.01,384,2019-04-03 15:48:15:910
-0.08,0.37,9.92,0.02,0.0,0.01,0.0,0.0,-0.01,390,2019-04-03 15:48:15:916
-0.08,0.37,9.92,0.02,0.0,0.01,0.0,0.0,-0.01,395,2019-04-03 15:48:15:921
-0.11,0.37,9.93,0.0,-0.01,0.04,0.0,0.0,-0.01,401,2019-04-03 15:48:15:927
-0.11,0.37,9.93,0.0,-0.01,0.04,0.0,0.0,-0.01,405,2019-04-03 15:48:15:931
-0.11,0.37,9.93,0.0,-0.01,0.04,0.0,0.0,-0.01,410,2019-04-03 15:48:15:936
-0.09,0.39,9.92,0.0,0.01,0.0,0.0,0.0,-0.01,414,2019-04-03 15:48:15:940
-0.09,0.39,9.92,0.0,0.01,0.0,0.0,0.0,-0.01,420,2019-04-03 15:48:15:946
-0.09,0.39,9.92,0.0,0.01,0.0,0.0,0.0,-0.01,425,2019-04-03 15:48:15:951
-0.09,0.39,9.92,0.0,0.01,0.0,0.0,0.0,-0.01,429,2019-04-03 15:48:15:955
-0.09,0.37,9.93,0.0,-0.01,0.01,0.0,0.0,-0.01,436,2019-04-03 15:48:15:962
-0.09,0.37,9.93,0.0,-0.01,0.01,0.0,0.0,-0.01,440,2019-04-03 15:48:15:966
-0.09,0.37,9.93,0.0,-0.01,0.01,0.0,0.0,-0.01,445,2019-04-03 15:48:15:971
-0.09,0.37,9.93,0.0,-0.01,0.01,0.0,0.0,-0.01,449,2019-04-03 15:48:15:975
-0.1,0.39,9.95,0.0,0.0,0.03,0.0,0.0,-0.01,455,2019-04-03 15:48:15:981
-0.1,0.39,9.95,0.0,0.0,0.03,0.0,0.0,-0.01,460,2019-04-03 15:48:15:986
-0.1,0.39,9.95,0.0,0.0,0.03,0.0,0.0,-0.01,465,2019-04-03 15:48:15:991
-0.12,0.42,9.9,0.0,0.0,0.03,0.0,0.0,-0.01,470,2019-04-03 15:48:15:996
-0.12,0.42,9.9,-0.01,0.02,-0.01,0.0,0.0,0.0,477,2019-04-03 15:48:16:003
-0.12,0.42,9.9,-0.01,0.02,-0.01,0.0,0.0,0.0,480,2019-04-03 15:48:16:006
-0.12,0.42,9.9,-0.01,0.02,-0.01,0.0,0.0,0.0,485,2019-04-03 15:48:16:011
-0.08,0.35,9.91,-0.01,0.02,-0.01,0.0,0.0,-0.01,490,2019-04-03 15:48:16:016
-0.08,0.35,9.91,-0.01,0.02,-0.01,0.0,0.0,-0.01,495,2019-04-03 15:48:16:021
-0.08,0.35,9.91,0.02,-0.04,0.0,0.0,0.0,-0.01,501,2019-04-03 15:48:16:027
-0.11,0.36,9.92,0.0,-0.01,0.0,0.0,0.0,0.0,514,2019-04-03 15:48:16:040
-0.11,0.36,9.92,0.0,-0.01,0.0,0.0,0.0,0.0,515,2019-04-03 15:48:16:041
-0.11,0.36,9.92,0.0,-0.01,0.0,0.0,0.0,0.0,515,2019-04-03 15:48:16:041
-0.11,0.36,9.92,0.0,-0.01,0.0,0.0,0.0,0.0,520,2019-04-03 15:48:16:046
-0.11,0.36,9.92,0.0,-0.01,0.0,0.0,0.0,0.0,525,2019-04-03 15:48:16:051
-0.11,0.36,9.92,0.0,-0.01,0.0,0.0,0.0,0.0,529,2019-04-03 15:48:16:055
-0.11,0.36,9.92,0.0,-0.01,0.0,0.0,0.0,0.0,535,2019-04-03 15:48:16:061
-0.11,0.36,9.92,0.0,-0.01,0.0,0.0,0.0,0.0,540,2019-04-03 15:48:16:066
-0.12,0.35,9.91,-0.02,-0.03,0.0,0.0,0.0,-0.01,545,2019-04-03 15:48:16:071
-0.12,0.35,9.91,-0.02,-0.03,0.0,0.0,0.0,-0.01,550,2019-04-03 15:48:16:076
-0.12,0.35,9.91,-0.02,-0.03,0.0,0.0,0.0,-0.01,556,2019-04-03 15:48:16:082
-0.12,0.35,9.91,-0.02,-0.03,0.0,0.0,0.0,-0.01,561,2019-04-03 15:48:16:087
-0.15,0.36,9.96,-0.04,-0.01,0.03,0.0,0.0,-0.01,565,2019-04-03 15:48:16:091
-0.15,0.36,9.96,-0.04,-0.01,0.03,0.0,0.0,-0.01,570,2019-04-03 15:48:16:096
-0.15,0.36,9.96,-0.04,-0.01,0.03,0.0,0.0,-0.01,575,2019-04-03 15:48:16:101
-0.15,0.36,9.96,-0.04,-0.01,0.03,0.0,0.0,-0.01,581,2019-04-03 15:48:16:107
-0.15,0.36,9.96,-0.04,-0.01,0.03,0.0,0.0,-0.01,585,2019-04-03 15:48:16:111
-0.15,0.36,9.96,-0.04,-0.01,0.03,0.0,0.0,-0.01,590,2019-04-03 15:48:16:116
-0.12,0.36,9.92,-0.01,-0.01,0.0,0.0,0.0,-0.01,595,2019-04-03 15:48:16:121
-0.12,0.36,9.92,-0.01,-0.01,0.0,0.0,0.0,-0.01,599,2019-04-03 15:48:16:125
-0.12,0.36,9.92,-0.01,-0.01,0.0,0.0,0.0,-0.01,606,2019-04-03 15:48:16:132
-0.12,0.36,9.92,-0.01,-0.01,0.0,0.0,0.0,-0.01,610,2019-04-03 15:48:16:136
-0.1,0.38,9.94,0.0,0.0,0.02,0.0,0.0,-0.01,616,2019-04-03 15:48:16:142
-0.1,0.38,9.94,0.0,0.0,0.02,0.0,0.0,-0.01,621,2019-04-03 15:48:16:147
-0.1,0.38,9.94,0.0,0.0,0.02,0.0,0.0,-0.01,625,2019-04-03 15:48:16:151
-0.1,0.38,9.94,0.0,0.0,0.02,0.0,0.0,-0.01,631,2019-04-03 15:48:16:157
-0.12,0.38,9.91,-0.01,0.0,0.0,0.0,0.0,-0.01,635,2019-04-03 15:48:16:161
-0.12,0.38,9.91,-0.01,0.0,0.0,0.0,0.0,-0.01,639,2019-04-03 15:48:16:165
-0.12,0.38,9.91,-0.01,0.0,0.0,0.0,0.0,-0.01,646,2019-04-03 15:48:16:172
-0.08,0.4,9.94,-0.01,0.0,0.0,0.0,0.0,-0.01,649,2019-04-03 15:48:16:175
-0.08,0.4,9.94,0.02,0.02,0.01,0.0,0.0,-0.01,656,2019-04-03 15:48:16:182
-0.08,0.4,9.94,0.02,0.02,0.01,0.0,0.0,-0.01,659,2019-04-03 15:48:16:185
-0.08,0.4,9.94,0.02,0.02,0.01,0.0,0.0,-0.01,665,2019-04-03 15:48:16:191
-0.13,0.41,9.91,-0.03,0.03,-0.01,0.0,0.0,0.0,671,2019-04-03 15:48:16:197
-0.13,0.41,9.91,-0.03,0.03,-0.01,0.0,0.0,0.0,675,2019-04-03 15:48:16:201
-0.13,0.41,9.91,-0.03,0.03,-0.01,0.0,0.0,0.0,680,2019-04-03 15:48:16:206
-0.13,0.41,9.91,-0.03,0.03,-0.01,0.0,0.0,0.0,685,2019-04-03 15:48:16:211
-0.13,0.41,9.91,-0.03,0.03,-0.01,0.0,0.0,0.0,690,2019-04-03 15:48:16:216
-0.13,0.41,9.91,-0.03,0.03,-0.01,0.0,0.0,0.0,695,2019-04-03 15:48:16:221
-0.06,0.38,9.92,0.03,0.0,0.0,0.0,0.0,-0.01,701,2019-04-03 15:48:16:227
-0.06,0.38,9.92,0.03,0.0,0.0,0.0,0.0,-0.01,705,2019-04-03 15:48:16:231
-0.06,0.38,9.92,0.03,0.0,0.0,0.0,0.0,-0.01,710,2019-04-03 15:48:16:236
-0.12,0.38,9.93,-0.01,0.0,0.01,0.0,0.0,-0.01,715,2019-04-03 15:48:16:241
-0.12,0.38,9.93,-0.01,0.0,0.01,0.0,0.0,-0.01,721,2019-04-03 15:48:16:247
-0.12,0.38,9.93,-0.01,0.0,0.01,0.0,0.0,-0.01,725,2019-04-03 15:48:16:251
-0.12,0.38,9.93,-0.01,0.0,0.01,0.0,0.0,-0.01,729,2019-04-03 15:48:16:255
-0.1,0.4,9.91,0.01,0.01,0.0,0.0,0.0,-0.01,735,2019-04-03 15:48:16:261
-0.1,0.4,9.91,0.01,0.01,0.0,0.0,0.0,-0.01,741,2019-04-03 15:48:16:267
-0.1,0.4,9.91,0.01,0.01,0.0,0.0,0.0,-0.01,744,2019-04-03 15:48:16:270
-0.1,0.4,9.91,0.01,0.01,0.0,0.0,0.0,-0.01,750,2019-04-03 15:48:16:276
-0.1,0.4,9.91,0.01,0.01,0.0,0.0,0.0,-0.01,755,2019-04-03 15:48:16:281
-0.1,0.4,9.91,0.01,0.01,0.0,0.0,0.0,-0.01,760,2019-04-03 15:48:16:286
-0.09,0.39,9.88,0.01,0.0,-0.03,0.0,0.0,-0.01,765,2019-04-03 15:48:16:291
-0.09,0.39,9.88,0.01,0.0,-0.03,0.0,0.0,-0.01,770,2019-04-03 15:48:16:296
-0.09,0.39,9.88,0.01,0.0,-0.03,0.0,0.0,-0.01,775,2019-04-03 15:48:16:301
-0.09,0.39,9.88,0.01,0.0,-0.03,0.0,0.0,-0.01,781,2019-04-03 15:48:16:307
-0.11,0.37,9.91,0.0,0.0,0.0,0.0,0.0,-0.01,786,2019-04-03 15:48:16:312
-0.11,0.37,9.91,0.0,0.0,0.0,0.0,0.0,-0.01,790,2019-04-03 15:48:16:316
-0.11,0.37,9.91,0.0,0.0,0.0,0.0,0.0,-0.01,795,2019-04-03 15:48:16:321
-0.13,0.38,9.9,0.0,0.0,0.0,0.0,0.0,-0.01,800,2019-04-03 15:48:16:326
-0.13,0.38,9.9,-0.02,0.0,-0.01,0.0,0.0,-0.01,805,2019-04-03 15:48:16:331
-0.13,0.38,9.9,-0.02,0.0,-0.01,0.0,0.0,-0.01,810,2019-04-03 15:48:16:336
-0.13,0.38,9.9,-0.02,0.0,-0.01,0.0,0.0,-0.01,815,2019-04-03 15:48:16:341
-0.1,0.4,9.9,0.0,0.01,-0.01,0.0,0.0,-0.01,820,2019-04-03 15:48:16:346
-0.1,0.4,9.9,0.0,0.01,-0.01,0.0,0.0,-0.01,825,2019-04-03 15:48:16:351
-0.09,0.37,9.9,0.01,-0.01,-0.01,0.0,0.0,-0.01,831,2019-04-03 15:48:16:357
-0.09,0.37,9.9,0.01,-0.01,-0.01,0.0,0.0,-0.01,836,2019-04-03 15:48:16:362
-0.09,0.37,9.9,0.01,-0.01,-0.01,0.0,0.0,-0.01,840,2019-04-03 15:48:16:366
-0.09,0.37,9.9,0.01,-0.01,-0.01,0.0,0.0,-0.01,845,2019-04-03 15:48:16:371
-0.12,0.38,9.9,0.01,-0.01,-0.01,0.0,0.0,-0.01,850,2019-04-03 15:48:16:376
-0.12,0.38,9.9,-0.01,0.0,-0.01,0.0,0.0,-0.01,855,2019-04-03 15:48:16:381
-0.12,0.38,9.9,-0.01,0.0,-0.01,0.0,0.0,-0.01,860,2019-04-03 15:48:16:386
-0.12,0.38,9.9,-0.01,0.0,-0.01,0.0,0.0,-0.01,865,2019-04-03 15:48:16:391
-0.12,0.38,9.9,-0.01,0.0,-0.01,0.0,0.0,-0.01,870,2019-04-03 15:48:16:396
-0.12,0.38,9.9,-0.01,0.0,-0.01,0.0,0.0,-0.01,875,2019-04-03 15:48:16:401
-0.12,0.38,9.9,-0.01,0.0,-0.01,0.0,0.0,-0.01,879,2019-04-03 15:48:16:405
-0.06,0.36,9.92,0.04,-0.02,0.01,0.0,0.0,0.0,885,2019-04-03 15:48:16:411
-0.06,0.36,9.92,0.04,-0.02,0.01,0.0,0.0,0.0,889,2019-04-03 15:48:16:415
-0.06,0.36,9.92,0.04,-0.02,0.01,0.0,0.0,0.0,896,2019-04-03 15:48:16:422
-0.12,0.37,9.9,0.04,-0.02,0.01,0.0,0.0,-0.01,900,2019-04-03 15:48:16:426
-0.12,0.37,9.9,-0.01,-0.01,0.0,0.0,0.0,-0.01,905,2019-04-03 15:48:16:431
-0.12,0.37,9.9,-0.01,-0.01,0.0,0.0,0.0,-0.01,910,2019-04-03 15:48:16:436
-0.11,0.37,9.91,0.0,-0.01,0.0,0.0,0.0,0.0,915,2019-04-03 15:48:16:441
-0.11,0.37,9.91,0.0,-0.01,0.0,0.0,0.0,0.0,919,2019-04-03 15:48:16:445
-0.11,0.37,9.91,0.0,-0.01,0.0,0.0,0.0,0.0,925,2019-04-03 15:48:16:451
-0.13,0.39,9.93,0.0,-0.01,0.0,0.0,0.0,-0.01,930,2019-04-03 15:48:16:456
-0.13,0.39,9.93,-0.02,0.0,0.02,0.0,0.0,-0.01,934,2019-04-03 15:48:16:460
-0.13,0.39,9.93,-0.02,0.0,0.02,0.0,0.0,-0.01,939,2019-04-03 15:48:16:465
-0.13,0.39,9.93,-0.02,0.0,0.02,0.0,0.0,-0.01,946,2019-04-03 15:48:16:472
-0.13,0.39,9.93,-0.02,0.0,0.02,0.0,0.0,-0.01,950,2019-04-03 15:48:16:476
-0.13,0.39,9.93,-0.02,0.0,0.02,0.0,0.0,-0.01,955,2019-04-03 15:48:16:481
-0.09,0.41,9.91,-0.02,0.0,0.02,0.0,0.0,-0.01,960,2019-04-03 15:48:16:486
-0.09,0.41,9.91,0.01,0.03,0.0,0.0,0.0,-0.01,965,2019-04-03 15:48:16:491
-0.09,0.41,9.91,0.01,0.03,0.0,0.0,0.0,-0.01,970,2019-04-03 15:48:16:496
-0.09,0.4,9.92,0.01,0.03,0.0,0.0,0.0,-0.01,975,2019-04-03 15:48:16:501
-0.09,0.4,9.92,0.01,0.01,0.01,0.0,0.0,-0.01,981,2019-04-03 15:48:16:507
-0.09,0.4,9.92,0.01,0.01,0.01,0.0,0.0,-0.01,986,2019-04-03 15:48:16:512
-0.09,0.38,9.91,0.01,0.01,0.01,0.0,0.0,-0.01,990,2019-04-03 15:48:16:516
-0.09,0.38,9.91,0.01,0.0,0.0,0.0,0.0,0.0,995,2019-04-03 15:48:16:521
-0.09,0.38,9.91,0.01,0.0,0.0,0.0,0.0,0.0,999,2019-04-03 15:48:16:525
-0.09,0.38,9.91,0.01,0.0,0.0,0.0,0.0,0.0,1005,2019-04-03 15:48:16:531
-0.14,0.38,9.89,-0.02,0.0,-0.01,0.0,0.0,-0.01,1010,2019-04-03 15:48:16:536
-0.14,0.38,9.89,-0.02,0.0,-0.01,0.0,0.0,-0.01,1015,2019-04-03 15:48:16:541
-0.14,0.38,9.89,-0.02,0.0,-0.01,0.0,0.0,-0.01,1020,2019-04-03 15:48:16:546
-0.14,0.38,9.89,-0.02,0.0,-0.01,0.0,0.0,-0.01,1026,2019-04-03 15:48:16:552
-0.14,0.38,9.89,-0.02,0.0,-0.01,0.0,0.0,-0.01,1030,2019-04-03 15:48:16:556
-0.14,0.38,9.89,-0.02,0.0,-0.01,0.0,0.0,-0.01,1035,2019-04-03 15:48:16:561
-0.1,0.39,9.94,-0.02,0.0,-0.01,0.0,0.0,-0.01,1041,2019-04-03 15:48:16:567
-0.1,0.39,9.94,0.01,0.0,0.02,0.0,0.0,-0.01,1045,2019-04-03 15:48:16:571
-0.1,0.39,9.94,0.01,0.0,0.02,0.0,0.0,-0.01,1050,2019-04-03 15:48:16:576
-0.1,0.39,9.94,0.01,0.0,0.02,0.0,0.0,-0.01,1055,2019-04-03 15:48:16:581
-0.11,0.37,9.8,0.0,-0.01,-0.1,0.0,0.0,0.0,1060,2019-04-03 15:48:16:586
-0.11,0.37,9.8,0.0,-0.01,-0.1,0.0,0.0,0.0,1065,2019-04-03 15:48:16:591
-0.11,0.37,9.8,0.0,-0.01,-0.1,0.0,0.0,0.0,1070,2019-04-03 15:48:16:596
-0.11,0.37,9.8,0.0,-0.01,-0.1,0.0,0.0,-0.01,1075,2019-04-03 15:48:16:601
-0.08,0.43,9.93,0.02,0.04,0.02,0.0,0.0,-0.01,1081,2019-04-03 15:48:16:607
-0.08,0.43,9.93,0.02,0.04,0.02,0.0,0.0,0.0,1085,2019-04-03 15:48:16:611
-0.08,0.43,9.93,0.02,0.04,0.02,0.0,0.0,0.0,1090,2019-04-03 15:48:16:616
-0.08,0.43,9.93,0.02,0.04,0.02,0.0,0.0,0.0,1095,2019-04-03 15:48:16:621
-0.08,0.43,9.9,0.02,0.04,0.02,0.0,0.0,0.0,1100,2019-04-03 15:48:16:626
-0.07,0.39,9.9,0.03,0.0,0.0,0.0,0.0,0.0,1106,2019-04-03 15:48:16:632
-0.07,0.39,9.9,0.03,0.0,0.0,0.0,0.0,0.0,1110,2019-04-03 15:48:16:636
-0.07,0.39,9.9,0.03,0.0,0.0,0.0,0.0,0.0,1115,2019-04-03 15:48:16:641
-0.07,0.39,9.9,0.03,0.0,0.0,0.0,0.0,0.0,1119,2019-04-03 15:48:16:645
-0.12,0.36,9.91,-0.01,-0.02,0.0,0.0,0.0,-0.01,1125,2019-04-03 15:48:16:651
-0.12,0.36,9.91,-0.01,-0.02,0.0,0.0,0.0,-0.01,1129,2019-04-03 15:48:16:655
-0.12,0.36,9.91,-0.01,-0.02,0.0,0.0,0.0,-0.01,1135,2019-04-03 15:48:16:661
-0.12,0.36,9.91,-0.01,-0.02,0.0,0.0,0.0,-0.01,1141,2019-04-03 15:48:16:667
-0.11,0.39,9.91,0.0,0.0,0.0,0.0,0.0,-0.01,1145,2019-04-03 15:48:16:671
-0.11,0.39,9.91,0.0,0.0,0.0,0.0,0.0,-0.01,1150,2019-04-03 15:48:16:676
-0.11,0.39,9.91,0.0,0.0,0.0,0.0,0.0,-0.01,1155,2019-04-03 15:48:16:681
-0.11,0.39,9.91,0.0,0.0,0.0,0.0,0.0,-0.01,1160,2019-04-03 15:48:16:686
-0.11,0.39,9.91,0.0,0.0,0.0,0.0,0.0,-0.01,1165,2019-04-03 15:48:16:691
-0.12,0.4,9.97,-0.01,0.01,0.06,0.0,0.0,-0.01,1171,2019-04-03 15:48:16:697
-0.12,0.4,9.97,-0.01,0.01,0.06,0.0,0.0,-0.01,1175,2019-04-03 15:48:16:701
-0.12,0.4,9.97,-0.01,0.01,0.06,0.0,0.0,-0.01,1180,2019-04-03 15:48:16:706
-0.12,0.4,9.97,-0.01,0.01,0.06,0.0,0.0,-0.01,1185,2019-04-03 15:48:16:711
-0.08,0.39,9.88,-0.01,0.01,0.06,0.0,0.0,-0.01,1190,2019-04-03 15:48:16:716
-0.08,0.39,9.88,-0.01,0.01,0.06,0.0,0.0,-0.01,1195,2019-04-03 15:48:16:721
-0.08,0.39,9.88,0.02,0.0,-0.02,0.0,0.0,0.0,1200,2019-04-03 15:48:16:726
-0.08,0.39,9.88,0.02,0.0,-0.02,0.0,0.0,0.0,1204,2019-04-03 15:48:16:730
-0.08,0.39,9.88,0.02,0.0,-0.02,0.0,0.0,0.0,1209,2019-04-03 15:48:16:735
-0.14,0.39,9.92,-0.03,0.0,0.01,0.0,0.0,-0.01,1215,2019-04-03 15:48:16:741
-0.14,0.39,9.92,-0.03,0.0,0.01,0.0,0.0,-0.01,1220,2019-04-03 15:48:16:746
-0.14,0.39,9.92,-0.03,0.0,0.01,0.0,0.0,-0.01,1225,2019-04-03 15:48:16:751
-0.11,0.38,9.94,0.0,0.0,0.02,0.0,0.0,-0.01,1230,2019-04-03 15:48:16:756
-0.11,0.38,9.94,0.0,0.0,0.02,0.0,0.0,-0.01,1235,2019-04-03 15:48:16:761
-0.11,0.38,9.94,0.0,0.0,0.02,0.0,0.0,-0.01,1242,2019-04-03 15:48:16:768
-0.12,0.38,9.91,-0.01,0.0,0.0,0.0,0.0,-0.01,1245,2019-04-03 15:48:16:771
-0.12,0.38,9.91,-0.01,0.0,0.0,0.0,0.0,-0.01,1250,2019-04-03 15:48:16:776
-0.12,0.38,9.91,-0.01,0.0,0.0,0.0,0.0,-0.01,1255,2019-04-03 15:48:16:781
-0.12,0.38,9.91,-0.01,0.0,0.0,0.0,0.0,-0.01,1260,2019-04-03 15:48:16:786
-0.1,0.39,9.9,0.0,0.0,-0.01,0.0,0.0,-0.01,1265,2019-04-03 15:48:16:791
-0.1,0.39,9.9,0.0,0.0,-0.01,0.0,0.0,-0.01,1269,2019-04-03 15:48:16:795
-0.1,0.39,9.9,0.0,0.0,-0.01,0.0,0.0,-0.01,1275,2019-04-03 15:48:16:801
-0.1,0.39,9.9,0.0,0.0,-0.01,0.0,0.0,-0.01,1281,2019-04-03 15:48:16:807
-0.1,0.39,9.9,0.0,0.0,-0.01,0.0,0.0,-0.01,1285,2019-04-03 15:48:16:811
-0.1,0.39,9.9,0.0,0.0,-0.01,0.0,0.0,-0.01,1291,2019-04-03 15:48:16:817
-0.13,0.39,9.89,-0.03,0.0,-0.02,0.0,0.0,-0.01,1295,2019-04-03 15:48:16:821
-0.13,0.39,9.89,-0.03,0.0,-0.02,0.0,0.0,-0.01,1300,2019-04-03 15:48:16:826
-0.13,0.39,9.89,-0.03,0.0,-0.02,0.0,0.0,-0.01,1305,2019-04-03 15:48:16:831
-0.13,0.39,9.89,-0.03,0.0,-0.02,0.0,0.0,-0.01,1310,2019-04-03 15:48:16:836
-0.13,0.39,9.89,-0.03,0.0,-0.02,0.0,0.0,-0.01,1315,2019-04-03 15:48:16:841
-0.13,0.39,9.89,-0.03,0.0,-0.02,0.0,0.0,-0.01,1320,2019-04-03 15:48:16:846
-0.13,0.39,9.89,-0.03,0.0,-0.02,0.0,0.0,-0.01,1326,2019-04-03 15:48:16:852
-0.13,0.39,9.89,-0.03,0.0,-0.02,0.0,0.0,-0.01,1330,2019-04-03 15:48:16:856
-0.15,0.39,9.9,-0.04,0.0,0.0,0.0,0.0,0.0,1336,2019-04-03 15:48:16:862
-0.15,0.39,9.9,-0.04,0.0,0.0,0.0,0.0,0.0,1340,2019-04-03 15:48:16:866
-0.15,0.39,9.9,-0.04,0.0,0.0,0.0,0.0,0.0,1345,2019-04-03 15:48:16:871
-0.09,0.38,9.95,0.01,0.0,0.03,0.0,0.0,0.0,1351,2019-04-03 15:48:16:877
-0.09,0.38,9.95,0.01,0.0,0.03,0.0,0.0,0.0,1355,2019-04-03 15:48:16:881
-0.09,0.38,9.95,0.01,0.0,0.03,0.0,0.0,0.0,1360,2019-04-03 15:48:16:886
-0.09,0.38,9.95,0.01,0.0,0.03,0.0,0.0,0.0,1365,2019-04-03 15:48:16:891
-0.11,0.38,9.91,0.0,-0.01,0.0,0.0,0.0,-0.01,1373,2019-04-03 15:48:16:899
-0.11,0.38,9.91,0.0,-0.01,0.0,0.0,0.0,-0.01,1375,2019-04-03 15:48:16:901
-0.11,0.38,9.91,0.0,-0.01,0.0,0.0,0.0,-0.01,1380,2019-04-03 15:48:16:906
-0.11,0.38,9.91,0.0,-0.01,0.0,0.0,0.0,-0.01,1385,2019-04-03 15:48:16:911
-0.11,0.38,9.91,0.0,-0.01,0.0,0.0,0.0,-0.01,1390,2019-04-03 15:48:16:916
-0.13,0.38,9.9,-0.02,0.0,0.0,0.0,0.0,-0.01,1395,2019-04-03 15:48:16:921
-0.13,0.38,9.9,-0.02,0.0,0.0,0.0,0.0,-0.01,1400,2019-04-03 15:48:16:926
-0.13,0.38,9.9,0.0,-0.03,-0.02,0.0,0.0,-0.01,1405,2019-04-03 15:48:16:931
-0.13,0.38,9.9,0.0,-0.03,-0.02,0.0,0.0,-0.01,1410,2019-04-03 15:48:16:936
-0.13,0.38,9.9,0.0,-0.03,-0.02,0.0,0.0,-0.01,1416,2019-04-03 15:48:16:942
-0.13,0.38,9.9,0.0,-0.03,-0.02,0.0,0.0,-0.01,1420,2019-04-03 15:48:16:946
-0.08,0.37,9.95,0.02,-0.01,0.03,0.0,0.0,-0.01,1426,2019-04-03 15:48:16:952
-0.08,0.37,9.95,0.02,-0.01,0.03,0.0,0.0,-0.01,1430,2019-04-03 15:48:16:956
-0.08,0.37,9.95,0.02,-0.01,0.03,0.0,0.0,-0.01,1435,2019-04-03 15:48:16:961
-0.08,0.37,9.95,0.02,-0.01,0.03,0.0,0.0,-0.01,1441,2019-04-03 15:48:16:967
-0.08,0.37,9.95,0.02,-0.01,0.03,0.0,0.0,-0.01,1445,2019-04-03 15:48:16:971
-0.08,0.37,9.95,0.02,-0.01,0.03,0.0,0.0,-0.01,1450,2019-04-03 15:48:16:976
-0.08,0.37,9.95,0.02,-0.01,0.03,0.0,0.0,-0.01,1456,2019-04-03 15:48:16:982
-0.11,0.36,9.9,0.0,-0.02,-0.01,0.0,0.0,-0.01,1460,2019-04-03 15:48:16:986
-0.11,0.36,9.9,0.0,-0.02,-0.01,0.0,0.0,-0.01,1470,2019-04-03 15:48:16:996
-0.11,0.36,9.9,0.0,-0.02,-0.01,0.0,0.0,-0.01,1470,2019-04-03 15:48:16:996
-0.11,0.36,9.9,0.0,-0.02,-0.01,0.0,0.0,-0.01,1475,2019-04-03 15:48:17:001
-0.12,0.41,9.94,0.0,-0.02,-0.01,0.0,0.0,-0.01,1480,2019-04-03 15:48:17:006
-0.12,0.41,9.94,-0.01,0.02,0.02,0.0,0.0,-0.01,1485,2019-04-03 15:48:17:011
-0.12,0.41,9.94,-0.01,0.02,0.02,0.0,0.0,-0.01,1491,2019-04-03 15:48:17:017
-0.12,0.41,9.94,-0.01,0.02,0.02,0.0,0.0,-0.01,1495,2019-04-03 15:48:17:021
-0.12,0.41,9.94,-0.01,0.02,0.02,0.0,0.0,-0.01,1500,2019-04-03 15:48:17:026
-0.12,0.41,9.94,-0.01,0.02,0.02,0.0,0.0,-0.01,1505,2019-04-03 15:48:17:031
-0.09,0.39,9.92,0.01,0.0,0.0,0.0,0.0,-0.01,1510,2019-04-03 15:48:17:036
-0.09,0.39,9.92,0.01,0.0,0.0,0.0,0.0,-0.01,1516,2019-04-03 15:48:17:042
-0.09,0.39,9.92,0.01,0.0,0.0,0.0,0.0,-0.01,1520,2019-04-03 15:48:17:046
-0.09,0.39,9.92,0.01,0.0,0.0,0.0,0.0,-0.01,1525,2019-04-03 15:48:17:051
-0.08,0.41,9.9,0.01,0.02,-0.01,0.0,0.0,-0.01,1531,2019-04-03 15:48:17:057
-0.08,0.41,9.9,0.01,0.02,-0.01,0.0,0.0,-0.01,1535,2019-04-03 15:48:17:061
-0.08,0.41,9.9,0.01,0.02,-0.01,0.0,0.0,-0.01,1540,2019-04-03 15:48:17:066
-0.12,0.45,9.92,-0.01,0.06,0.0,0.0,0.0,-0.01,1545,2019-04-03 15:48:17:071
-0.12,0.45,9.92,-0.01,0.06,0.0,0.0,0.0,-0.01,1551,2019-04-03 15:48:17:077
-0.12,0.45,9.92,-0.01,0.06,0.0,0.0,0.0,-0.01,1555,2019-04-03 15:48:17:081
-0.12,0.45,9.92,-0.01,0.06,0.0,0.0,0.0,-0.01,1560,2019-04-03 15:48:17:086
-0.12,0.45,9.92,-0.01,0.06,0.0,0.0,0.0,-0.01,1565,2019-04-03 15:48:17:091
-0.1,0.37,9.89,0.0,-0.01,-0.03,0.0,0.0,-0.01,1571,2019-04-03 15:48:17:097
-0.1,0.37,9.89,0.0,-0.01,-0.03,0.0,0.0,-0.01,1576,2019-04-03 15:48:17:102
-0.1,0.37,9.89,0.0,-0.01,-0.03,0.0,0.0,-0.01,1579,2019-04-03 15:48:17:105
-0.1,0.37,9.89,0.0,-0.01,-0.03,0.0,0.0,-0.01,1585,2019-04-03 15:48:17:111
-0.1,0.37,9.89,0.0,-0.01,-0.03,0.0,0.0,-0.01,1590,2019-04-03 15:48:17:116
-0.12,0.36,9.89,-0.02,-0.02,-0.03,0.0,0.0,-0.01,1597,2019-04-03 15:48:17:123
-0.12,0.36,9.89,-0.02,-0.02,-0.03,0.0,0.0,-0.01,1600,2019-04-03 15:48:17:126
-0.12,0.36,9.89,-0.02,-0.02,-0.03,0.0,0.0,-0.01,1605,2019-04-03 15:48:17:131
-0.12,0.36,9.89,-0.02,-0.02,-0.03,0.0,0.0,-0.01,1612,2019-04-03 15:48:17:138
-0.09,0.39,9.9,0.0,0.0,-0.01,0.0,0.0,-0.01,1616,2019-04-03 15:48:17:142
-0.09,0.39,9.9,0.0,0.0,-0.01,0.0,0.0,-0.01,1621,2019-04-03 15:48:17:147
-0.09,0.39,9.9,0.0,0.0,-0.01,0.0,0.0,-0.01,1625,2019-04-03 15:48:17:151
-0.1,0.38,9.88,0.0,0.0,-0.01,0.0,0.0,-0.01,1630,2019-04-03 15:48:17:156
-0.1,0.38,9.88,0.0,0.0,-0.03,0.0,0.0,-0.01,1635,2019-04-03 15:48:17:161
-0.1,0.38,9.88,0.0,0.0,-0.03,0.0,0.0,0.0,1641,2019-04-03 15:48:17:167
-0.12,0.39,9.9,-0.01,0.0,0.0,0.0,0.0,0.0,1646,2019-04-03 15:48:17:172
-0.12,0.39,9.9,-0.01,0.0,0.0,0.0,0.0,0.0,1650,2019-04-03 15:48:17:176
-0.12,0.39,9.9,-0.01,0.0,0.0,0.0,0.0,0.0,1655,2019-04-03 15:48:17:181
-0.09,0.38,9.92,0.0,0.0,0.0,0.0,0.0,-0.01,1660,2019-04-03 15:48:17:186
-0.09,0.38,9.92,0.0,0.0,0.0,0.0,0.0,-0.01,1665,2019-04-03 15:48:17:191
-0.09,0.38,9.92,0.0,0.0,0.0,0.0,0.0,-0.01,1670,2019-04-03 15:48:17:196
-0.09,0.38,9.92,0.0,0.0,0.0,0.0,0.0,-0.01,1677,2019-04-03 15:48:17:203
-0.12,0.4,9.91,-0.02,0.0,0.0,0.0,0.0,0.0,1686,2019-04-03 15:48:17:212
-0.12,0.4,9.91,-0.02,0.0,0.0,0.0,0.0,0.0,1687,2019-04-03 15:48:17:213
-0.12,0.4,9.91,-0.02,0.0,0.0,0.0,0.0,0.0,1695,2019-04-03 15:48:17:221
-0.12,0.4,9.91,-0.02,0.0,0.0,0.0,0.0,0.0,1696,2019-04-03 15:48:17:222
-0.12,0.4,9.91,-0.02,0.0,0.0,0.0,0.0,0.0,1702,2019-04-03 15:48:17:228
-0.12,0.4,9.91,-0.02,0.0,0.0,0.0,0.0,0.0,1705,2019-04-03 15:48:17:231
-0.1,0.4,9.92,0.0,0.01,0.0,0.0,0.0,-0.01,1711,2019-04-03 15:48:17:237
-0.1,0.4,9.92,0.0,0.01,0.0,0.0,0.0,-0.01,1715,2019-04-03 15:48:17:241
-0.1,0.4,9.92,0.0,0.01,0.0,0.0,0.0,-0.01,1720,2019-04-03 15:48:17:246
-0.1,0.4,9.92,0.0,0.01,0.0,0.0,0.0,-0.01,1726,2019-04-03 15:48:17:252
-0.11,0.37,9.87,-0.01,-0.01,-0.04,0.0,0.0,-0.01,1731,2019-04-03 15:48:17:257
-0.11,0.37,9.87,-0.01,-0.01,-0.04,0.0,0.0,-0.01,1735,2019-04-03 15:48:17:261
-0.11,0.37,9.87,-0.01,-0.01,-0.04,0.0,0.0,-0.01,1743,2019-04-03 15:48:17:269
-0.11,0.37,9.87,-0.01,-0.01,-0.04,0.0,0.0,-0.01,1744,2019-04-03 15:48:17:270
-0.12,0.4,9.94,-0.01,0.01,0.02,0.0,0.0,-0.01,1750,2019-04-03 15:48:17:276
-0.12,0.4,9.94,-0.01,0.01,0.02,0.0,0.0,-0.01,1755,2019-04-03 15:48:17:281
-0.12,0.4,9.94,-0.01,0.01,0.02,0.0,0.0,-0.01,1761,2019-04-03 15:48:17:287
-0.12,0.38,9.91,-0.01,0.0,0.0,0.0,0.0,-0.01,1766,2019-04-03 15:48:17:292
-0.12,0.38,9.91,-0.01,0.0,0.0,0.0,0.0,-0.01,1770,2019-04-03 15:48:17:296
-0.12,0.38,9.91,-0.01,0.0,0.0,0.0,0.0,-0.01,1775,2019-04-03 15:48:17:301
-0.12,0.38,9.91,-0.01,0.0,0.0,0.0,0.0,-0.01,1779,2019-04-03 15:48:17:305
-0.12,0.38,9.91,-0.01,0.0,0.0,0.0,0.0,-0.01,1785,2019-04-03 15:48:17:311
-0.11,0.39,9.92,0.0,0.0,0.0,0.0,0.0,-0.01,1790,2019-04-03 15:48:17:316
-0.11,0.39,9.92,0.0,0.0,0.0,0.0,0.0,-0.01,1796,2019-04-03 15:48:17:322
-0.11,0.39,9.92,0.0,0.0,0.0,0.0,0.0,-0.01,1808,2019-04-03 15:48:17:334
-0.11,0.39,9.92,0.0,0.0,0.0,0.0,0.0,-0.01,1808,2019-04-03 15:48:17:334
-0.11,0.39,9.92,0.0,0.0,0.0,0.0,0.0,-0.01,1810,2019-04-03 15:48:17:336
-0.15,0.35,9.9,-0.03,-0.02,0.0,0.0,0.0,-0.01,1818,2019-04-03 15:48:17:344
-0.15,0.35,9.9,-0.03,-0.02,0.0,0.0,0.0,-0.01,1820,2019-04-03 15:48:17:346
-0.15,0.35,9.9,-0.03,-0.02,0.0,0.0,0.0,-0.01,1825,2019-04-03 15:48:17:351
-0.09,0.39,9.87,0.01,0.0,-0.04,0.0,0.0,-0.01,1832,2019-04-03 15:48:17:358
-0.09,0.39,9.87,0.01,0.0,-0.04,0.0,0.0,-0.01,1836,2019-04-03 15:48:17:362
-0.09,0.39,9.87,0.01,0.0,-0.04,0.0,0.0,-0.01,1840,2019-04-03 15:48:17:366
-0.1,0.41,9.94,0.0,0.03,0.02,0.0,0.0,0.0,1849,2019-04-03 15:48:17:375
-0.1,0.41,9.94,0.0,0.03,0.02,0.0,0.0,0.0,1850,2019-04-03 15:48:17:376
-0.1,0.41,9.94,0.0,0.03,0.02,0.0,0.0,0.0,1855,2019-04-03 15:48:17:381
-0.1,0.41,9.94,0.0,0.03,0.02,0.0,0.0,0.0,1860,2019-04-03 15:48:17:386
-0.11,0.39,9.9,0.0,0.0,-0.01,0.0,0.0,-0.01,1865,2019-04-03 15:48:17:391
-0.11,0.39,9.9,0.0,0.0,-0.01,0.0,0.0,-0.01,1870,2019-04-03 15:48:17:396
-0.11,0.39,9.9,0.0,0.0,-0.01,0.0,0.0,-0.01,1875,2019-04-03 15:48:17:401
-0.11,0.39,9.9,0.0,0.0,-0.01,0.0,0.0,-0.01,1880,2019-04-03 15:48:17:406
-0.11,0.39,9.9,0.0,0.0,-0.01,0.0,0.0,-0.01,1885,2019-04-03 15:48:17:411
-0.11,0.39,9.9,0.0,0.0,-0.01,0.0,0.0,-0.01,1890,2019-04-03 15:48:17:416
-0.07,0.39,9.93,0.03,0.0,0.01,0.0,0.0,0.0,1895,2019-04-03 15:48:17:421
-0.07,0.39,9.93,0.03,0.0,0.01,0.0,0.0,0.0,1901,2019-04-03 15:48:17:427
-0.07,0.39,9.93,0.03,0.0,0.01,0.0,0.0,0.0,1905,2019-04-03 15:48:17:431
-0.07,0.39,9.93,0.03,0.0,0.01,0.0,0.0,0.0,1910,2019-04-03 15:48:17:436
-0.07,0.39,9.93,0.03,0.0,0.01,0.0,0.0,0.0,1915,2019-04-03 15:48:17:441
-0.11,0.37,9.9,0.0,-0.01,-0.01,0.0,0.0,-0.01,1920,2019-04-03 15:48:17:446
-0.11,0.37,9.9,0.0,-0.01,-0.01,0.0,0.0,-0.01,1925,2019-04-03 15:48:17:451
-0.11,0.37,9.9,0.0,-0.01,-0.01,0.0,0.0,-0.01,1933,2019-04-03 15:48:17:459
-0.11,0.37,9.9,0.0,-0.01,-0.01,0.0,0.0,-0.01,1934,2019-04-03 15:48:17:460
-0.1,0.38,9.88,0.0,0.0,-0.03,0.0,0.0,-0.01,1950,2019-04-03 15:48:17:476
-0.1,0.38,9.88,0.0,0.0,-0.03,0.0,0.0,-0.01,1960,2019-04-03 15:48:17:486
-0.1,0.38,9.88,0.0,0.0,-0.03,0.0,0.0,-0.01,1967,2019-04-03 15:48:17:493
-0.1,0.38,9.88,0.0,0.0,-0.03,0.0,0.0,-0.01,1969,2019-04-03 15:48:17:495
-0.1,0.38,9.88,0.0,0.0,-0.03,0.0,0.0,-0.01,1969,2019-04-03 15:48:17:495
-0.1,0.38,9.88,0.0,0.0,-0.03,0.0,0.0,-0.01,1970,2019-04-03 15:48:17:496
-0.1,0.38,9.88,0.0,0.0,-0.03,0.0,0.0,-0.01,1970,2019-04-03 15:48:17:496
-0.09,0.38,9.96,0.01,0.0,0.03,0.0,0.0,0.0,1975,2019-04-03 15:48:17:501
-0.09,0.38,9.96,0.01,0.0,0.03,0.0,0.0,0.0,1980,2019-04-03 15:48:17:506
-0.09,0.38,9.96,0.01,0.0,0.03,0.0,0.0,0.0,1985,2019-04-03 15:48:17:511
-0.11,0.38,9.86,0.0,0.0,-0.06,0.0,0.0,0.0,1992,2019-04-03 15:48:17:518
-0.11,0.38,9.86,0.0,0.0,-0.06,0.0,0.0,0.0,1995,2019-04-03 15:48:17:521
-0.11,0.38,9.86,0.0,0.0,-0.06,0.0,0.0,0.0,2000,2019-04-03 15:48:17:526
-0.11,0.38,9.86,0.0,0.0,-0.06,0.0,0.0,0.0,2005,2019-04-03 15:48:17:531
-0.11,0.38,9.86,0.0,0.0,-0.06,0.0,0.0,0.0,2010,2019-04-03 15:48:17:536
-0.11,0.38,9.86,0.0,0.0,-0.06,0.0,0.0,0.0,2015,2019-04-03 15:48:17:541
-0.1,0.37,9.91,0.0,-0.01,-0.01,0.0,0.0,0.0,2021,2019-04-03 15:48:17:547
-0.1,0.37,9.91,0.0,-0.01,-0.01,0.0,0.0,0.0,2026,2019-04-03 15:48:17:552
-0.1,0.37,9.91,0.0,-0.01,-0.01,0.0,0.0,0.0,2030,2019-04-03 15:48:17:556
-0.1,0.37,9.91,0.0,-0.01,-0.01,0.0,0.0,0.0,2035,2019-04-03 15:48:17:561
-0.12,0.39,9.89,0.0,-0.01,-0.01,0.0,0.0,0.0,2040,2019-04-03 15:48:17:566
-0.12,0.39,9.89,-0.01,0.0,-0.02,0.0,0.0,0.0,2045,2019-04-03 15:48:17:571
-0.12,0.39,9.89,-0.01,0.0,-0.02,0.0,0.0,0.0,2051,2019-04-03 15:48:17:577
-0.12,0.39,9.89,-0.01,0.0,-0.02,0.0,0.0,0.0,2055,2019-04-03 15:48:17:581
-0.12,0.39,9.89,-0.01,0.0,-0.02,0.0,0.0,0.0,2060,2019-04-03 15:48:17:586
-0.06,0.32,9.8,0.04,-0.05,-0.1,0.0,0.0,0.0,2066,2019-04-03 15:48:17:592
-0.06,0.32,9.8,0.04,-0.05,-0.1,0.0,0.0,0.0,2070,2019-04-03 15:48:17:596
-0.06,0.32,9.8,0.04,-0.05,-0.1,0.0,0.0,0.0,2078,2019-04-03 15:48:17:604
-0.14,0.4,9.96,-0.03,0.02,0.05,0.0,0.0,0.0,2089,2019-04-03 15:48:17:615
-0.14,0.4,9.96,-0.03,0.02,0.05,0.0,0.0,0.0,2090,2019-04-03 15:48:17:616
-0.14,0.4,9.96,-0.03,0.02,0.05,0.0,0.0,0.0,2091,2019-04-03 15:48:17:617
-0.14,0.4,9.96,-0.03,0.02,0.05,0.0,0.0,0.0,2096,2019-04-03 15:48:17:622
-0.14,0.4,9.96,-0.03,0.02,0.05,0.0,0.0,0.0,2100,2019-04-03 15:48:17:626
-0.14,0.4,9.96,-0.03,0.02,0.05,0.0,0.0,0.0,2105,2019-04-03 15:48:17:631
-0.16,0.4,9.92,-0.03,0.02,0.05,0.0,0.0,0.0,2111,2019-04-03 15:48:17:637
-0.16,0.4,9.92,-0.05,0.02,0.01,0.0,0.0,0.0,2116,2019-04-03 15:48:17:642
-0.16,0.4,9.92,-0.05,0.02,0.01,0.0,0.0,0.0,2119,2019-04-03 15:48:17:645
-0.16,0.4,9.92,-0.05,0.02,0.01,0.0,0.0,0.0,2126,2019-04-03 15:48:17:652
-0.12,0.4,9.89,0.0,0.01,-0.02,0.0,0.0,0.0,2131,2019-04-03 15:48:17:657
-0.12,0.4,9.89,0.0,0.01,-0.02,0.0,0.0,0.0,2135,2019-04-03 15:48:17:661
-0.12,0.4,9.89,0.0,0.01,-0.02,0.0,0.0,0.0,2141,2019-04-03 15:48:17:667
-0.1,0.38,9.91,0.0,0.0,0.0,0.0,0.0,0.0,2145,2019-04-03 15:48:17:671
-0.1,0.38,9.91,0.0,0.0,0.0,0.0,0.0,0.0,2150,2019-04-03 15:48:17:676
-0.1,0.38,9.91,0.0,0.0,0.0,0.0,0.0,0.0,2155,2019-04-03 15:48:17:681
-0.09,0.37,9.89,0.0,0.0,0.0,0.0,0.0,0.0,2160,2019-04-03 15:48:17:686
-0.09,0.37,9.89,0.01,-0.01,-0.02,0.0,0.0,0.0,2166,2019-04-03 15:48:17:692
-0.09,0.37,9.89,0.01,-0.01,-0.02,0.0,0.0,0.0,2170,2019-04-03 15:48:17:696
-0.09,0.37,9.89,0.01,-0.01,-0.02,0.0,0.0,0.0,2175,2019-04-03 15:48:17:701
-0.09,0.37,9.89,0.01,-0.01,-0.02,0.0,0.0,0.0,2181,2019-04-03 15:48:17:707
-0.09,0.37,9.89,0.01,-0.01,-0.02,0.0,0.0,0.0,2185,2019-04-03 15:48:17:711
-0.1,0.41,9.89,0.0,0.02,-0.01,0.0,0.0,0.0,2193,2019-04-03 15:48:17:719
-0.1,0.41,9.89,0.0,0.02,-0.01,0.0,0.0,0.0,2195,2019-04-03 15:48:17:721
-0.12,0.37,9.92,0.0,0.02,-0.01,0.0,0.0,0.0,2200,2019-04-03 15:48:17:726
-0.12,0.37,9.92,0.0,0.02,-0.01,0.0,0.0,0.0,2205,2019-04-03 15:48:17:731
-0.12,0.37,9.92,0.0,0.02,-0.01,0.0,0.0,0.0,2211,2019-04-03 15:48:17:737
-0.12,0.37,9.92,0.0,0.02,-0.01,0.0,0.0,0.0,2216,2019-04-03 15:48:17:742
-0.12,0.37,9.92,0.0,0.02,-0.01,0.0,0.0,0.0,2220,2019-04-03 15:48:17:746
-0.12,0.37,9.92,0.0,0.02,-0.01,0.0,0.0,0.0,2225,2019-04-03 15:48:17:751
-0.12,0.37,9.92,0.0,0.02,-0.01,0.0,0.0,0.0,2230,2019-04-03 15:48:17:756
-0.14,0.38,9.91,-0.03,0.0,0.0,0.0,0.0,0.0,2235,2019-04-03 15:48:17:761
-0.14,0.38,9.91,-0.03,0.0,0.0,0.0,0.0,0.0,2240,2019-04-03 15:48:17:766
-0.14,0.38,9.92,-0.05,0.02,0.02,0.0,0.0,0.0,2245,2019-04-03 15:48:17:771
-0.14,0.38,9.92,-0.05,0.02,0.02,0.0,0.0,0.0,2251,2019-04-03 15:48:17:777
-0.14,0.38,9.92,-0.05,0.02,0.02,0.0,0.0,0.0,2255,2019-04-03 15:48:17:781
-0.14,0.38,9.92,-0.05,0.02,0.02,0.0,0.0,0.0,2260,2019-04-03 15:48:17:786
-0.14,0.38,9.92,-0.05,0.02,0.02,0.0,0.0,0.0,2265,2019-04-03 15:48:17:791
-0.1,0.4,9.93,0.01,0.01,0.01,0.0,0.0,0.0,2270,2019-04-03 15:48:17:796
-0.1,0.4,9.93,0.01,0.01,0.01,0.0,0.0,0.0,2275,2019-04-03 15:48:17:801
-0.1,0.4,9.93,0.01,0.01,0.01,0.0,0.0,0.0,2282,2019-04-03 15:48:17:808
-0.1,0.4,9.93,0.01,0.01,0.01,0.0,0.0,0.0,2285,2019-04-03 15:48:17:811
-0.1,0.4,9.93,0.01,0.01,0.01,0.0,0.0,0.0,2292,2019-04-03 15:48:17:818
-0.11,0.36,9.89,0.0,-0.02,-0.02,0.0,0.0,0.0,2295,2019-04-03 15:48:17:821
-0.11,0.36,9.89,0.0,-0.02,-0.02,0.0,0.0,0.0,2300,2019-04-03 15:48:17:826
-0.11,0.36,9.89,0.0,-0.02,-0.02,0.0,0.0,0.0,2305,2019-04-03 15:48:17:831
-0.11,0.36,9.89,0.0,-0.02,-0.02,0.0,0.0,0.0,2310,2019-04-03 15:48:17:836
-0.11,0.36,9.89,0.0,-0.02,-0.02,0.0,0.0,0.0,2315,2019-04-03 15:48:17:841
-0.11,0.36,9.89,0.0,-0.02,-0.02,0.0,0.0,0.0,2319,2019-04-03 15:48:17:845
-0.11,0.36,9.89,0.0,-0.02,-0.02,0.0,0.0,0.0,2325,2019-04-03 15:48:17:851
-0.12,0.41,9.93,-0.01,0.02,0.01,0.0,0.0,0.0,2331,2019-04-03 15:48:17:857
-0.12,0.41,9.93,-0.01,0.02,0.01,0.0,0.0,0.0,2335,2019-04-03 15:48:17:861
-0.12,0.41,9.93,-0.01,0.02,0.01,0.0,0.0,0.0,2342,2019-04-03 15:48:17:868
-0.11,0.38,9.91,0.0,0.0,0.0,0.0,0.0,0.0,2346,2019-04-03 15:48:17:872
-0.11,0.38,9.91,0.0,0.0,0.0,0.0,0.0,0.0,2350,2019-04-03 15:48:17:876
-0.11,0.38,9.91,0.0,0.0,0.0,0.0,0.0,0.0,2355,2019-04-03 15:48:17:881
-0.11,0.38,9.91,0.0,0.0,0.0,0.0,0.0,0.0,2360,2019-04-03 15:48:17:886
-0.11,0.37,9.89,0.0,-0.01,-0.02,0.0,0.0,0.0,2365,2019-04-03 15:48:17:891
-0.11,0.37,9.89,0.0,-0.01,-0.02,0.0,0.0,0.0,2370,2019-04-03 15:48:17:896
-0.11,0.37,9.89,0.0,-0.01,-0.02,0.0,0.0,0.0,2377,2019-04-03 15:48:17:903
-0.1,0.37,9.94,0.0,0.0,0.01,0.0,0.0,0.0,2382,2019-04-03 15:48:17:908
-0.1,0.37,9.94,0.0,0.0,0.01,0.0,0.0,0.0,2384,2019-04-03 15:48:17:910
-0.1,0.37,9.94,0.0,0.0,0.01,0.0,0.0,0.0,2392,2019-04-03 15:48:17:918
-0.1,0.37,9.94,0.0,0.0,0.01,0.0,0.0,0.0,2397,2019-04-03 15:48:17:923
-0.1,0.37,9.94,0.0,0.0,0.01,0.0,0.0,0.0,2400,2019-04-03 15:48:17:926
-0.1,0.37,9.94,0.0,0.0,0.01,0.0,0.0,0.0,2405,2019-04-03 15:48:17:931
-0.1,0.37,9.94,0.0,0.0,0.01,0.0,0.0,0.0,2410,2019-04-03 15:48:17:936
-0.1,0.41,9.9,0.01,0.02,-0.02,0.0,0.0,0.0,2415,2019-04-03 15:48:17:941
-0.1,0.41,9.9,0.01,0.02,-0.02,0.0,0.0,0.0,2420,2019-04-03 15:48:17:946
-0.1,0.41,9.9,0.01,0.02,-0.02,0.0,0.0,0.0,2425,2019-04-03 15:48:17:951
-0.1,0.41,9.9,0.01,0.02,-0.02,0.0,0.0,0.0,2430,2019-04-03 15:48:17:956
-0.1,0.41,9.9,0.01,0.02,-0.02,0.0,0.0,0.0,2435,2019-04-03 15:48:17:961
-0.11,0.39,9.93,0.0,0.01,0.01,0.0,0.0,0.0,2443,2019-04-03 15:48:17:969
-0.11,0.39,9.93,0.0,0.01,0.01,0.0,0.0,0.0,2445,2019-04-03 15:48:17:971
-0.11,0.39,9.93,0.0,0.01,0.01,0.0,0.0,0.0,2450,2019-04-03 15:48:17:976
-0.11,0.39,9.93,0.0,0.01,0.01,0.0,0.0,0.0,2455,2019-04-03 15:48:17:981
-0.11,0.39,9.93,0.0,0.01,0.01,0.0,0.0,0.0,2462,2019-04-03 15:48:17:988
-0.09,0.4,9.88,0.0,0.01,-0.02,0.0,0.0,0.0,2467,2019-04-03 15:48:17:993
-0.09,0.4,9.88,0.0,0.01,-0.02,0.0,0.0,0.0,2470,2019-04-03 15:48:17:996
-0.09,0.4,9.88,0.0,0.01,-0.02,0.0,0.0,0.0,2475,2019-04-03 15:48:18:001
-0.09,0.4,9.88,0.0,0.01,-0.02,0.0,0.0,0.0,2480,2019-04-03 15:48:18:006
-0.12,0.36,9.93,-0.02,-0.01,0.02,0.0,0.0,0.0,2485,2019-04-03 15:48:18:011
-0.12,0.36,9.93,-0.02,-0.01,0.02,0.0,0.0,0.0,2492,2019-04-03 15:48:18:018
-0.12,0.36,9.93,-0.02,-0.01,0.02,0.0,0.0,0.0,2497,2019-04-03 15:48:18:023
-0.06,0.37,9.88,0.03,-0.01,-0.03,0.0,0.0,0.0,2502,2019-04-03 15:48:18:028
-0.06,0.37,9.88,0.03,-0.01,-0.03,0.0,0.0,0.0,2505,2019-04-03 15:48:18:031
-0.06,0.37,9.88,0.03,-0.01,-0.03,0.0,0.0,0.0,2510,2019-04-03 15:48:18:036
-0.06,0.37,9.88,0.03,-0.01,-0.03,0.0,0.0,0.0,2515,2019-04-03 15:48:18:041
-0.06,0.37,9.88,0.03,-0.01,-0.03,0.0,0.0,0.0,2520,2019-04-03 15:48:18:046
-0.06,0.37,9.88,0.03,-0.01,-0.03,0.0,0.0,0.0,2527,2019-04-03 15:48:18:053
-0.09,0.37,9.9,0.0,-0.01,0.0,0.0,0.0,0.0,2530,2019-04-03 15:48:18:056
-0.09,0.37,9.9,0.0,-0.01,0.0,0.0,0.0,0.0,2535,2019-04-03 15:48:18:061
-0.09,0.37,9.9,0.0,-0.01,0.0,0.0,0.0,0.0,2541,2019-04-03 15:48:18:067
-0.15,0.39,9.95,0.02,-0.02,-0.07,0.0,0.0,0.0,2545,2019-04-03 15:48:18:071
-0.15,0.39,9.95,0.02,-0.02,-0.07,0.0,0.0,0.0,2551,2019-04-03 15:48:18:077
-0.15,0.39,9.95,0.02,-0.02,-0.07,0.0,0.0,0.0,2555,2019-04-03 15:48:18:081
-0.15,0.39,9.95,0.02,-0.02,-0.07,0.0,0.0,0.0,2560,2019-04-03 15:48:18:086
-0.15,0.39,9.95,0.02,-0.02,-0.07,0.0,0.0,0.0,2565,2019-04-03 15:48:18:091
-0.12,0.4,9.97,-0.02,0.01,0.06,0.0,0.0,0.0,2570,2019-04-03 15:48:18:096
-0.12,0.4,9.97,-0.02,0.01,0.06,0.0,0.0,0.0,2578,2019-04-03 15:48:18:104
-0.12,0.4,9.97,-0.02,0.01,0.06,0.0,0.0,0.0,2580,2019-04-03 15:48:18:106
-0.12,0.4,9.97,-0.03,0.01,0.0,0.0,0.0,0.0,2585,2019-04-03 15:48:18:111
-0.12,0.4,9.97,-0.03,0.01,0.0,0.0,0.0,0.0,2593,2019-04-03 15:48:18:119
-0.12,0.4,9.97,-0.03,0.01,0.0,0.0,0.0,0.0,2599,2019-04-03 15:48:18:125
-0.12,0.4,9.97,-0.03,0.01,0.0,0.0,0.0,0.0,2603,2019-04-03 15:48:18:129
-0.12,0.4,9.97,-0.03,0.01,0.0,0.0,0.0,0.0,2605,2019-04-03 15:48:18:131
-0.12,0.4,9.97,-0.03,0.01,0.0,0.0,0.0,0.0,2610,2019-04-03 15:48:18:136
-0.06,0.4,9.94,0.03,0.01,0.03,0.0,0.0,0.0,2617,2019-04-03 15:48:18:143
-0.06,0.4,9.94,0.03,0.01,0.03,0.0,0.0,0.0,2620,2019-04-03 15:48:18:146
-0.06,0.4,9.94,0.03,0.01,0.03,0.0,0.0,0.0,2627,2019-04-03 15:48:18:153
-0.14,0.44,9.89,-0.03,0.04,-0.01,0.0,0.0,0.0,2630,2019-04-03 15:48:18:156
-0.14,0.44,9.89,-0.03,0.04,-0.01,0.0,0.0,0.0,2635,2019-04-03 15:48:18:161
-0.14,0.44,9.89,-0.03,0.04,-0.01,0.0,0.0,0.0,2640,2019-04-03 15:48:18:166
-0.09,0.48,10.07,-0.03,0.04,-0.01,0.0,0.0,0.0,2646,2019-04-03 15:48:18:172
-0.09,0.48,10.07,-0.03,0.04,-0.01,0.0,0.0,0.0,2650,2019-04-03 15:48:18:176
-0.09,0.48,10.07,-0.03,0.04,-0.01,0.0,0.0,0.0,2655,2019-04-03 15:48:18:181
-0.09,0.48,10.07,-0.03,0.04,-0.01,0.0,0.0,0.0,2660,2019-04-03 15:48:18:186
0.09,0.66,10.26,0.18,0.24,0.32,0.0,0.0,0.0,2665,2019-04-03 15:48:18:191
0.09,0.66,10.26,0.18,0.24,0.32,0.0,0.0,0.0,2671,2019-04-03 15:48:18:197
0.09,0.66,10.26,0.18,0.24,0.32,0.0,0.0,0.0,2675,2019-04-03 15:48:18:201
-0.62,0.44,8.67,0.18,0.24,0.32,0.0,0.02,0.0,2680,2019-04-03 15:48:18:206
-0.62,0.44,8.67,-0.51,0.03,-1.24,0.0,0.02,0.0,2685,2019-04-03 15:48:18:211
-0.62,0.44,8.67,-0.51,0.03,-1.24,0.0,0.02,0.0,2692,2019-04-03 15:48:18:218
-0.62,0.44,8.67,-0.51,0.03,-1.24,0.0,0.02,0.0,2697,2019-04-03 15:48:18:223
-0.49,0.23,9.8,-0.41,-0.16,-0.08,0.0,-0.04,-0.01,2699,2019-04-03 15:48:18:225
-0.49,0.23,9.8,-0.41,-0.16,-0.08,0.0,-0.04,-0.01,2706,2019-04-03 15:48:18:232
-0.49,0.23,9.8,-0.41,-0.16,-0.08,0.0,-0.04,-0.01,2710,2019-04-03 15:48:18:236
-0.49,0.23,9.8,-0.41,-0.16,-0.08,0.0,-0.04,-0.01,2716,2019-04-03 15:48:18:242
0.21,0.67,10.64,0.34,0.26,0.7,0.0,0.0,0.0,2720,2019-04-03 15:48:18:246
0.21,0.67,10.64,0.34,0.26,0.7,0.0,0.0,0.0,2725,2019-04-03 15:48:18:251
0.21,0.67,10.64,0.34,0.26,0.7,0.0,0.0,0.0,2731,2019-04-03 15:48:18:257
0.21,0.67,10.64,0.34,0.26,0.7,0.0,0.0,0.0,2735,2019-04-03 15:48:18:261
0.21,0.67,10.64,0.34,0.26,0.7,0.0,0.0,0.0,2741,2019-04-03 15:48:18:267
-0.38,0.57,9.98,-0.2,0.13,0.04,0.0,0.03,0.0,2748,2019-04-03 15:48:18:274
-0.38,0.57,9.98,-0.2,0.13,0.04,0.0,0.03,0.0,2750,2019-04-03 15:48:18:276
-0.38,0.57,9.98,-0.2,0.13,0.04,0.0,0.03,0.0,2755,2019-04-03 15:48:18:281
-0.38,0.57,9.98,-0.2,0.13,0.04,0.0,0.03,0.0,2760,2019-04-03 15:48:18:286
-0.29,0.23,9.04,-0.13,-0.19,-0.86,0.0,-0.02,-0.01,2765,2019-04-03 15:48:18:291
-0.29,0.23,9.04,-0.13,-0.19,-0.86,0.0,-0.02,-0.01,2771,2019-04-03 15:48:18:297
-0.29,0.23,9.04,-0.13,-0.19,-0.86,0.0,-0.02,-0.01,2776,2019-04-03 15:48:18:302
-0.29,0.23,9.04,-0.13,-0.19,-0.86,0.0,-0.02,-0.01,2781,2019-04-03 15:48:18:307
-0.29,0.23,9.04,-0.13,-0.19,-0.86,0.0,-0.02,-0.01,2785,2019-04-03 15:48:18:311
-0.29,0.23,9.04,-0.13,-0.19,-0.86,0.0,-0.02,-0.01,2790,2019-04-03 15:48:18:316
0.89,-0.19,9.73,0.98,-0.57,-0.16,0.0,-0.03,-0.01,2795,2019-04-03 15:48:18:321
0.89,-0.19,9.73,0.98,-0.57,-0.16,0.0,-0.03,-0.01,2800,2019-04-03 15:48:18:326
0.89,-0.19,9.73,0.98,-0.57,-0.16,0.0,-0.03,-0.01,2805,2019-04-03 15:48:18:331
0.89,-0.19,9.73,0.98,-0.57,-0.16,0.0,-0.03,-0.01,2810,2019-04-03 15:48:18:336
0.06,0.39,8.41,0.13,0.02,-1.36,0.01,0.06,0.0,2815,2019-04-03 15:48:18:341
0.06,0.39,8.41,0.13,0.02,-1.36,0.01,0.06,0.0,2821,2019-04-03 15:48:18:347
0.06,0.39,8.41,0.13,0.02,-1.36,0.01,0.06,0.0,2825,2019-04-03 15:48:18:351
-0.29,-0.42,9.43,0.13,0.02,-1.36,-0.03,0.02,-0.02,2832,2019-04-03 15:48:18:358
-0.29,-0.42,9.43,-0.29,-0.73,-0.33,-0.03,0.02,-0.02,2835,2019-04-03 15:48:18:361
-0.29,-0.42,9.43,-0.29,-0.73,-0.33,-0.03,0.02,-0.02,2841,2019-04-03 15:48:18:367
-0.65,0.06,11.52,-0.29,-0.73,-0.33,0.02,0.04,-0.03,2844,2019-04-03 15:48:18:370
-0.65,0.06,11.52,-0.29,-0.73,-0.33,0.02,0.04,-0.03,2851,2019-04-03 15:48:18:377
-0.65,0.06,11.52,-0.29,-0.73,-0.33,0.02,0.04,-0.03,2855,2019-04-03 15:48:18:381
-0.65,0.06,11.52,-0.29,-0.73,-0.33,0.02,0.04,-0.03,2860,2019-04-03 15:48:18:386
-1.86,2.09,11.23,-1.75,1.7,1.25,0.0,0.03,-0.03,2865,2019-04-03 15:48:18:391
-1.86,2.09,11.23,-1.75,1.7,1.25,0.0,0.03,-0.03,2871,2019-04-03 15:48:18:397
-1.86,2.09,11.23,-1.75,1.7,1.25,0.0,0.03,-0.03,2875,2019-04-03 15:48:18:401
-1.18,0.26,10.41,-0.88,-0.21,0.27,-0.03,0.0,-0.02,2883,2019-04-03 15:48:18:409
-1.18,0.26,10.41,-0.88,-0.21,0.27,-0.03,0.0,-0.02,2885,2019-04-03 15:48:18:411
-1.18,0.26,10.41,-0.88,-0.21,0.27,-0.03,0.0,-0.02,2890,2019-04-03 15:48:18:416
-1.18,0.26,10.41,-0.88,-0.21,0.27,-0.03,0.0,-0.02,2895,2019-04-03 15:48:18:421
-1.18,0.26,10.41,-0.88,-0.21,0.27,-0.03,0.0,-0.02,2900,2019-04-03 15:48:18:426
-1.18,0.26,10.41,-0.88,-0.21,0.27,-0.03,0.0,-0.02,2905,2019-04-03 15:48:18:431
-3.15,0.55,8.03,-0.88,-0.21,0.27,0.03,-0.01,0.0,2912,2019-04-03 15:48:18:438
-3.15,0.55,8.03,-2.77,0.05,-2.06,0.03,-0.01,0.0,2916,2019-04-03 15:48:18:442
-3.15,0.55,8.03,-2.77,0.05,-2.06,0.03,-0.01,0.0,2920,2019-04-03 15:48:18:446
-3.15,0.55,8.03,-2.77,0.05,-2.06,0.03,-0.01,0.0,2925,2019-04-03 15:48:18:451
0.55,0.0,9.39,-2.77,0.05,-2.06,0.03,-0.01,0.0,2930,2019-04-03 15:48:18:456
0.55,0.0,9.39,0.78,-0.47,-0.67,-0.01,-0.19,-0.02,2935,2019-04-03 15:48:18:461
0.65,0.49,10.82,1.06,-0.15,-0.1,-0.01,-0.11,0.02,2944,2019-04-03 15:48:18:470
0.65,0.49,10.82,1.06,-0.15,-0.1,-0.01,-0.11,0.02,2945,2019-04-03 15:48:18:471
0.65,0.49,10.82,1.06,-0.15,-0.1,-0.01,-0.11,0.02,2951,2019-04-03 15:48:18:477
0.65,0.49,10.82,1.06,-0.15,-0.1,-0.01,-0.11,0.02,2955,2019-04-03 15:48:18:481
0.65,0.49,10.82,1.06,-0.15,-0.1,-0.01,-0.11,0.02,2960,2019-04-03 15:48:18:486
-0.05,1.16,9.03,0.04,0.65,-1.05,0.0,-0.01,0.03,2966,2019-04-03 15:48:18:492
-0.05,1.16,9.03,0.04,0.65,-1.05,0.0,-0.01,0.03,2969,2019-04-03 15:48:18:495
-0.05,1.16,9.03,0.04,0.65,-1.05,0.0,-0.01,0.03,2975,2019-04-03 15:48:18:501
-0.05,1.16,9.03,0.04,0.65,-1.05,0.0,-0.01,0.03,2979,2019-04-03 15:48:18:505
-0.05,1.16,9.03,0.04,0.65,-1.05,0.0,-0.01,0.03,2988,2019-04-03 15:48:18:514
-0.05,1.16,9.03,0.04,0.65,-1.05,0.0,-0.01,0.03,2989,2019-04-03 15:48:18:515
-0.05,1.16,9.03,0.04,0.65,-1.05,0.0,-0.01,0.03,2995,2019-04-03 15:48:18:521
-0.05,1.16,9.03,0.04,0.65,-1.05,0.0,-0.01,0.03,3000,2019-04-03 15:48:18:526
-0.24,1.83,9.3,-0.13,1.1,-0.98,-0.02,-0.14,0.08,3006,2019-04-03 15:48:18:532
-0.24,1.83,9.3,-0.13,1.1,-0.98,-0.01,0.0,0.22,3011,2019-04-03 15:48:18:537
-0.24,1.83,9.3,-0.13,1.1,-0.98,-0.01,0.0,0.22,3015,2019-04-03 15:48:18:541
-0.24,1.83,9.3,-0.13,1.1,-0.98,-0.01,0.0,0.22,3020,2019-04-03 15:48:18:546
-0.24,1.83,9.3,-0.13,1.1,-0.98,-0.01,0.0,0.22,3028,2019-04-03 15:48:18:554
-0.24,1.83,9.3,-0.13,1.1,-0.98,-0.01,0.0,0.22,3031,2019-04-03 15:48:18:557
-0.24,1.83,9.3,-0.13,1.1,-0.98,-0.01,0.0,0.22,3035,2019-04-03 15:48:18:561
-5.16,1.62,12.36,-4.69,0.64,2.2,-0.04,-0.07,0.09,3041,2019-04-03 15:48:18:567
-5.16,1.62,12.36,-4.69,0.64,2.2,-0.04,-0.07,0.09,3046,2019-04-03 15:48:18:572
-0.18,-2.77,11.06,-0.36,-2.87,0.22,-0.05,0.25,-0.08,3096,2019-04-03 15:48:18:622
-0.18,-2.77,11.06,-0.36,-2.87,0.22,-0.05,0.25,-0.08,3096,2019-04-03 15:48:18:622
-0.18,-2.77,11.06,-0.36,-2.87,0.22,-0.05,0.25,-0.08,3097,2019-04-03 15:48:18:623
-0.18,-2.77,11.06,-0.36,-2.87,0.22,-0.05,0.25,-0.08,3097,2019-04-03 15:48:18:623
-0.18,-2.77,11.06,-0.36,-2.87,0.22,-0.05,0.25,-0.08,3097,2019-04-03 15:48:18:623
-0.18,-2.77,11.06,-0.36,-2.87,0.22,-0.05,0.25,-0.08,3097,2019-04-03 15:48:18:623
-0.18,-2.77,11.06,-0.36,-2.87,0.22,-0.05,0.25,-0.08,3098,2019-04-03 15:48:18:624
-0.18,-2.77,11.06,-0.36,-2.87,0.22,-0.05,0.25,-0.08,3098,2019-04-03 15:48:18:624
-0.18,-2.77,11.06,-0.36,-2.87,0.22,-0.05,0.25,-0.08,3099,2019-04-03 15:48:18:625
-0.18,-2.77,11.06,-0.36,-2.87,0.22,-0.05,0.25,-0.08,3099,2019-04-03 15:48:18:625
-0.18,-2.77,11.06,-0.36,-2.87,0.22,-0.05,0.25,-0.08,3100,2019-04-03 15:48:18:626
-0.18,-2.77,11.06,-0.36,-2.87,0.22,-0.05,0.25,-0.08,3118,2019-04-03 15:48:18:644
-0.18,-2.77,11.06,-0.36,-2.87,0.22,-0.05,0.25,-0.08,3119,2019-04-03 15:48:18:645
-0.18,-2.77,11.06,-0.36,-2.87,0.22,-0.05,0.25,-0.08,3119,2019-04-03 15:48:18:645
-0.18,-2.77,11.06,-0.36,-2.87,0.22,-0.05,0.25,-0.08,3120,2019-04-03 15:48:18:646
-0.38,-1.68,9.18,-0.79,-1.62,-1.81,-0.01,0.11,0.13,3134,2019-04-03 15:48:18:660
-0.38,-1.68,9.18,-0.79,-1.62,-1.81,-0.01,0.11,0.13,3134,2019-04-03 15:48:18:660
-0.38,-1.68,9.18,-0.79,-1.62,-1.81,-0.01,0.11,0.13,3135,2019-04-03 15:48:18:661
-0.38,-1.68,9.18,-0.79,-1.62,-1.81,-0.01,0.11,0.13,3140,2019-04-03 15:48:18:666
-0.38,-1.68,9.18,-0.79,-1.62,-1.81,-0.01,0.11,0.13,3146,2019-04-03 15:48:18:672
-0.38,-1.68,9.18,-0.79,-1.62,-1.81,-0.01,0.11,0.13,3150,2019-04-03 15:48:18:676
-0.38,-1.68,9.18,-0.79,-1.62,-1.81,-0.01,0.11,0.13,3155,2019-04-03 15:48:18:681
-0.34,-0.99,11.05,-0.3,-0.58,-0.14,0.02,0.44,0.17,3160,2019-04-03 15:48:18:686
-0.34,-0.99,11.05,-0.3,-0.58,-0.14,0.02,0.44,0.17,3165,2019-04-03 15:48:18:691
-2.67,2.45,7.78,-2.46,2.83,-3.28,0.0,0.23,0.12,3170,2019-04-03 15:48:18:696
-2.67,2.45,7.78,-2.46,2.83,-3.28,0.0,0.23,0.12,3178,2019-04-03 15:48:18:704
-2.67,2.45,7.78,-2.46,2.83,-3.28,0.0,0.23,0.12,3188,2019-04-03 15:48:18:714
-2.67,2.45,7.78,-2.46,2.83,-3.28,0.0,0.23,0.12,3189,2019-04-03 15:48:18:715
-2.67,2.45,7.78,-2.46,2.83,-3.28,0.0,0.23,0.12,3190,2019-04-03 15:48:18:716
-0.88,0.07,10.16,-0.57,0.51,-0.84,0.0,-0.13,0.04,3196,2019-04-03 15:48:18:722
-0.88,0.07,10.16,-0.57,0.51,-0.84,0.0,-0.13,0.04,3200,2019-04-03 15:48:18:726
-0.88,0.07,10.16,-0.57,0.51,-0.84,0.0,-0.13,0.04,3206,2019-04-03 15:48:18:732
-0.82,2.2,9.53,-0.57,0.51,-0.84,0.0,-0.13,0.04,3211,2019-04-03 15:48:18:737
-0.82,2.2,9.53,-0.62,2.48,-1.65,0.14,-0.14,0.07,3216,2019-04-03 15:48:18:742
-0.82,2.2,9.53,-0.62,2.48,-1.65,0.14,-0.14,0.07,3220,2019-04-03 15:48:18:746
-0.82,2.2,9.53,-0.62,2.48,-1.65,0.14,-0.14,0.07,3225,2019-04-03 15:48:18:751
3.53,0.62,12.28,3.27,1.12,1.16,-0.1,-0.16,0.08,3232,2019-04-03 15:48:18:758
3.53,0.62,12.28,3.27,1.12,1.16,-0.1,-0.16,0.08,3236,2019-04-03 15:48:18:762
3.53,0.62,12.28,3.27,1.12,1.16,-0.1,-0.16,0.08,3240,2019-04-03 15:48:18:766
3.53,0.62,12.28,3.27,1.12,1.16,-0.1,-0.16,0.08,3245,2019-04-03 15:48:18:771
0.05,-0.59,12.21,-0.24,-0.17,1.34,0.06,0.17,0.21,3250,2019-04-03 15:48:18:776
0.05,-0.59,12.21,-0.24,-0.17,1.34,0.06,0.17,0.21,3256,2019-04-03 15:48:18:782
0.05,-0.59,12.21,-0.24,-0.17,1.34,0.06,0.17,0.21,3259,2019-04-03 15:48:18:785
0.05,-0.59,12.21,-0.24,-0.17,1.34,0.06,0.17,0.21,3265,2019-04-03 15:48:18:791
0.05,-0.59,12.21,-0.24,-0.17,1.34,0.06,0.17,0.21,3271,2019-04-03 15:48:18:797
-0.38,1.41,9.75,-0.55,1.59,-0.89,0.02,0.06,0.19,3276,2019-04-03 15:48:18:802
-0.38,1.41,9.75,-0.55,1.59,-0.89,0.02,0.06,0.19,3280,2019-04-03 15:48:18:806
-0.38,1.41,9.75,-0.55,1.59,-0.89,0.02,0.06,0.19,3285,2019-04-03 15:48:18:811
-0.38,1.41,9.75,-0.55,1.59,-0.89,0.02,0.06,0.19,3290,2019-04-03 15:48:18:816
-2.23,0.52,10.14,-1.97,0.37,-0.3,-0.1,0.1,0.2,3295,2019-04-03 15:48:18:821
-2.23,0.52,10.14,-1.97,0.37,-0.3,-0.1,0.1,0.2,3300,2019-04-03 15:48:18:826
-2.23,0.52,10.14,-1.97,0.37,-0.3,-0.1,0.1,0.2,3305,2019-04-03 15:48:18:831
-2.23,0.52,10.14,-1.97,0.37,-0.3,-0.1,0.1,0.2,3310,2019-04-03 15:48:18:836
-0.12,0.97,8.62,0.47,0.42,-1.56,0.11,-0.05,0.15,3316,2019-04-03 15:48:18:842
-0.12,0.97,8.62,0.47,0.42,-1.56,0.11,-0.05,0.15,3320,2019-04-03 15:48:18:846
-0.12,0.97,8.62,0.47,0.42,-1.56,0.11,-0.05,0.15,3325,2019-04-03 15:48:18:851
0.37,5.99,9.6,1.07,4.89,-0.39,0.17,-0.07,0.15,3331,2019-04-03 15:48:18:857
0.37,5.99,9.6,1.07,4.89,-0.39,0.17,-0.07,0.15,3336,2019-04-03 15:48:18:862
0.37,5.99,9.6,1.07,4.89,-0.39,0.17,-0.07,0.15,3340,2019-04-03 15:48:18:866
0.37,5.99,9.6,1.07,4.89,-0.39,0.17,-0.07,0.15,3346,2019-04-03 15:48:18:872
0.37,5.99,9.6,1.07,4.89,-0.39,0.17,-0.07,0.15,3350,2019-04-03 15:48:18:876
-3.09,0.01,10.11,-2.62,-1.28,0.01,-0.17,-0.03,0.11,3358,2019-04-03 15:48:18:884
-3.09,0.01,10.11,-2.62,-1.28,0.01,-0.17,-0.03,0.11,3360,2019-04-03 15:48:18:886
-3.09,0.01,10.11,-2.62,-1.28,0.01,-0.17,-0.03,0.11,3365,2019-04-03 15:48:18:891
-0.32,1.54,11.67,-0.05,0.12,1.39,0.14,-0.21,-0.01,3370,2019-04-03 15:48:18:896
-0.32,1.54,11.67,-0.05,0.12,1.39,0.14,-0.21,-0.01,3381,2019-04-03 15:48:18:907
-0.32,1.54,11.67,-0.05,0.12,1.39,0.14,-0.21,-0.01,3386,2019-04-03 15:48:18:912
-0.32,1.54,11.67,-0.05,0.12,1.39,0.14,-0.21,-0.01,3386,2019-04-03 15:48:18:912
2.13,2.86,11.48,2.27,1.37,1.12,0.04,-0.07,-0.03,3394,2019-04-03 15:48:18:920
2.13,2.86,11.48,2.27,1.37,1.12,0.04,-0.07,-0.03,3394,2019-04-03 15:48:18:920
2.13,2.86,11.48,2.27,1.37,1.12,0.04,-0.07,-0.03,3400,2019-04-03 15:48:18:926
2.13,2.86,11.48,2.27,1.37,1.12,0.04,-0.07,-0.03,3405,2019-04-03 15:48:18:931
2.13,2.86,11.48,2.27,1.37,1.12,0.04,-0.07,-0.03,3410,2019-04-03 15:48:18:936
-0.2,0.99,11.24,-0.03,-0.41,0.8,-0.07,0.13,0.03,3416,2019-04-03 15:48:18:942
-0.2,0.99,11.24,-0.03,-0.41,0.8,-0.07,0.13,0.03,3421,2019-04-03 15:48:18:947
-0.2,0.99,11.24,-0.03,-0.41,0.8,-0.07,0.13,0.03,3425,2019-04-03 15:48:18:951
0.39,1.24,7.68,-0.03,-0.41,0.8,-0.07,0.13,0.03,3432,2019-04-03 15:48:18:958
0.39,1.24,7.68,-0.03,-0.41,0.8,-0.07,0.13,0.03,3434,2019-04-03 15:48:18:960
0.39,1.24,7.68,0.78,-0.3,-2.66,0.04,0.14,0.04,3441,2019-04-03 15:48:18:967
0.39,1.24,7.68,0.78,-0.3,-2.66,0.04,0.14,0.04,3445,2019-04-03 15:48:18:971
0.39,1.24,7.68,0.78,-0.3,-2.66,0.04,0.14,0.04,3449,2019-04-03 15:48:18:975
0.39,1.24,7.68,0.78,-0.3,-2.66,0.04,0.14,0.04,3454,2019-04-03 15:48:18:980
0.04,2.34,12.08,0.27,0.73,1.64,0.03,0.1,0.12,3462,2019-04-03 15:48:18:988
0.04,2.34,12.08,0.27,0.73,1.64,0.03,0.1,0.12,3465,2019-04-03 15:48:18:991
0.04,2.34,12.08,0.27,0.73,1.64,0.03,0.1,0.12,3470,2019-04-03 15:48:18:996
0.04,2.34,12.08,0.27,0.73,1.64,0.03,0.1,0.12,3475,2019-04-03 15:48:19:001
-0.59,0.85,9.2,-0.26,-0.9,-1.14,-0.04,0.14,0.17,3481,2019-04-03 15:48:19:007
-0.59,0.85,9.2,-0.26,-0.9,-1.14,-0.04,0.14,0.17,3485,2019-04-03 15:48:19:011
-0.59,0.85,9.2,-0.26,-0.9,-1.14,-0.04,0.14,0.17,3490,2019-04-03 15:48:19:016
-1.24,0.73,8.97,-0.94,-1.08,-1.21,0.0,-0.04,0.0,3495,2019-04-03 15:48:19:021
-1.24,0.73,8.97,-0.94,-1.08,-1.21,0.0,-0.04,0.0,3500,2019-04-03 15:48:19:026
-1.24,0.73,8.97,-0.94,-1.08,-1.21,0.0,-0.04,0.0,3505,2019-04-03 15:48:19:031
0.51,-0.8,8.56,0.72,-2.37,-1.53,-0.01,-0.22,-0.09,3512,2019-04-03 15:48:19:038
0.51,-0.8,8.56,0.72,-2.37,-1.53,-0.01,-0.22,-0.09,3516,2019-04-03 15:48:19:042
0.51,-0.8,8.56,0.72,-2.37,-1.53,-0.01,-0.22,-0.09,3520,2019-04-03 15:48:19:046
0.51,-0.8,8.56,0.72,-2.37,-1.53,-0.01,-0.22,-0.09,3525,2019-04-03 15:48:19:051
0.51,-0.8,8.56,0.72,-2.37,-1.53,-0.01,-0.22,-0.09,3530,2019-04-03 15:48:19:056
0.51,-0.8,8.56,0.72,-2.37,-1.53,-0.01,-0.22,-0.09,3536,2019-04-03 15:48:19:062
0.29,1.52,9.28,0.72,-2.37,-1.53,0.12,-0.2,-0.09,3540,2019-04-03 15:48:19:066
0.29,1.52,9.28,0.36,0.22,-0.73,0.12,-0.2,-0.09,3545,2019-04-03 15:48:19:071
0.29,1.52,9.28,0.36,0.22,-0.73,-0.05,-0.09,-0.07,3550,2019-04-03 15:48:19:076
0.29,1.52,9.28,0.01,-0.21,-1.68,-0.05,-0.09,-0.07,3555,2019-04-03 15:48:19:081
0.29,1.52,9.28,0.01,-0.21,-1.68,-0.05,-0.09,-0.07,3561,2019-04-03 15:48:19:087
0.29,1.52,9.28,0.01,-0.21,-1.68,-0.05,-0.09,-0.07,3565,2019-04-03 15:48:19:091
0.29,-0.53,9.3,0.01,-0.21,-0.34,-0.01,0.05,-0.03,3570,2019-04-03 15:48:19:096
-0.57,-0.53,9.3,-0.63,-1.48,-0.34,-0.01,0.05,-0.03,3574,2019-04-03 15:48:19:100
-0.57,-0.53,9.3,-0.63,-1.48,-0.34,-0.01,0.05,-0.03,3580,2019-04-03 15:48:19:106
-0.57,-0.53,9.3,-0.63,-1.48,-0.34,-0.01,0.05,-0.03,3585,2019-04-03 15:48:19:111
0.11,1.13,10.04,0.05,0.3,0.47,0.09,-0.11,-0.04,3590,2019-04-03 15:48:19:116
0.11,1.13,10.04,0.05,0.3,0.47,0.09,-0.11,-0.04,3598,2019-04-03 15:48:19:124
0.11,1.13,10.04,0.05,0.3,0.47,0.09,-0.11,-0.04,3600,2019-04-03 15:48:19:126
0.11,1.13,10.04,0.05,0.3,0.47,0.09,-0.11,-0.04,3605,2019-04-03 15:48:19:131
0.11,1.13,10.04,0.05,0.3,0.47,0.09,-0.11,-0.04,3610,2019-04-03 15:48:19:136
0.44,1.82,10.5,0.34,1.02,0.89,-0.04,-0.02,0.0,3615,2019-04-03 15:48:19:141
0.44,1.82,10.5,0.34,1.02,0.89,-0.04,-0.02,0.0,3620,2019-04-03 15:48:19:146
0.44,1.82,10.5,0.34,1.02,0.89,-0.04,-0.02,0.0,3626,2019-04-03 15:48:19:152
0.44,1.82,10.5,0.34,1.02,0.89,-0.04,-0.02,0.0,3630,2019-04-03 15:48:19:156
0.77,1.17,10.15,0.61,0.35,0.6,-0.02,0.02,-0.01,3635,2019-04-03 15:48:19:161
0.77,1.17,10.15,0.61,0.35,0.6,-0.02,0.02,-0.01,3640,2019-04-03 15:48:19:166
0.77,1.17,10.15,0.61,0.35,0.6,-0.02,0.02,-0.01,3645,2019-04-03 15:48:19:171
0.78,3.0,9.92,0.66,2.08,0.6,0.06,0.01,0.0,3650,2019-04-03 15:48:19:176
0.78,3.0,9.92,0.66,2.08,0.6,0.06,0.01,0.0,3655,2019-04-03 15:48:19:181
0.78,3.0,9.92,0.66,2.08,0.6,0.06,0.01,0.0,3660,2019-04-03 15:48:19:186
0.78,3.0,9.92,0.66,2.08,0.6,0.06,0.01,0.0,3665,2019-04-03 15:48:19:191
-0.43,3.09,9.63,0.66,2.08,0.6,0.06,0.01,0.0,3670,2019-04-03 15:48:19:196
-0.43,3.09,9.63,-0.55,2.08,0.18,-0.05,0.03,0.02,3675,2019-04-03 15:48:19:201
-0.43,3.09,9.63,-0.55,2.08,0.18,-0.05,0.03,0.02,3680,2019-04-03 15:48:19:206
-0.43,3.09,9.63,-0.55,2.08,0.18,-0.05,0.03,0.02,3686,2019-04-03 15:48:19:212
-1.14,2.08,10.96,-0.55,2.08,0.18,-0.05,-0.06,-0.02,3690,2019-04-03 15:48:19:216
-1.14,2.08,10.96,-1.42,0.87,1.37,-0.05,-0.06,-0.02,3695,2019-04-03 15:48:19:221
-1.14,2.08,10.96,-1.42,0.87,1.37,-0.05,-0.06,-0.02,3700,2019-04-03 15:48:19:226
-1.14,2.08,10.96,-1.42,0.87,1.37,-0.05,-0.06,-0.02,3705,2019-04-03 15:48:19:231
-1.14,2.08,10.96,-1.42,0.87,1.37,-0.05,-0.06,-0.02,3710,2019-04-03 15:48:19:236
-1.14,2.08,10.96,-1.42,0.87,1.37,-0.05,-0.06,-0.02,3715,2019-04-03 15:48:19:241
0.25,1.5,10.64,-1.42,0.87,1.37,-0.05,-0.06,-0.02,3720,2019-04-03 15:48:19:246
0.25,1.5,10.64,0.04,0.07,0.95,0.03,-0.08,-0.04,3725,2019-04-03 15:48:19:251
0.25,1.5,10.64,0.04,0.07,0.95,0.03,-0.08,-0.04,3729,2019-04-03 15:48:19:255
-0.93,0.46,10.46,0.04,0.07,0.95,0.0,-0.18,-0.07,3735,2019-04-03 15:48:19:261
-0.93,0.46,10.46,0.04,0.07,0.95,0.0,-0.18,-0.07,3740,2019-04-03 15:48:19:266
-0.93,0.46,10.46,0.04,0.07,0.95,0.0,-0.18,-0.07,3745,2019-04-03 15:48:19:271
-0.93,0.46,10.46,0.04,0.07,0.95,0.0,-0.18,-0.07,3750,2019-04-03 15:48:19:276
-0.93,0.46,10.46,0.04,0.07,0.95,0.0,-0.18,-0.07,3755,2019-04-03 15:48:19:281
-0.93,0.46,10.46,0.04,0.07,0.95,0.0,-0.18,-0.07,3760,2019-04-03 15:48:19:286
-1.57,0.56,10.22,-1.44,-0.97,0.44,-0.07,0.03,-0.07,3765,2019-04-03 15:48:19:291
-1.57,0.56,10.22,-1.44,-0.97,0.44,-0.07,0.03,-0.07,3770,2019-04-03 15:48:19:296
-1.57,0.56,10.22,-1.44,-0.97,0.44,-0.07,0.03,-0.07,3775,2019-04-03 15:48:19:301
-1.01,2.72,9.01,-1.44,-0.97,0.44,-0.07,0.03,-0.07,3780,2019-04-03 15:48:19:306
-1.01,2.72,9.01,-0.83,0.9,-0.82,0.06,-0.02,-0.14,3785,2019-04-03 15:48:19:311
-1.01,2.72,9.01,-0.83,0.9,-0.82,0.06,-0.02,-0.14,3790,2019-04-03 15:48:19:316
-1.01,2.72,9.01,-0.83,0.9,-0.82,0.06,-0.02,-0.14,3795,2019-04-03 15:48:19:321
-1.06,1.6,8.47,-0.83,0.9,-0.82,0.06,-0.02,-0.14,3800,2019-04-03 15:48:19:326
-1.06,1.6,8.47,-0.97,-0.22,-1.31,-0.03,-0.1,-0.21,3804,2019-04-03 15:48:19:330
-1.06,1.6,8.47,-0.97,-0.22,-1.31,-0.03,-0.1,-0.21,3810,2019-04-03 15:48:19:336
0.79,2.44,10.07,0.29,2.3,0.0,-0.1,-0.11,-0.28,3814,2019-04-03 15:48:19:340
0.79,2.44,10.07,0.29,2.3,0.0,-0.1,-0.11,-0.28,3819,2019-04-03 15:48:19:345
0.79,2.44,10.07,0.29,2.3,0.0,-0.1,-0.11,-0.28,3825,2019-04-03 15:48:19:351
0.79,2.44,10.07,0.29,2.3,0.0,-0.1,-0.11,-0.28,3830,2019-04-03 15:48:19:356
4.23,5.73,8.89,4.13,3.45,-0.69,0.0,-0.08,-0.34,3835,2019-04-03 15:48:19:361
4.23,5.73,8.89,4.13,3.45,-0.69,0.0,-0.08,-0.34,3840,2019-04-03 15:48:19:366
4.23,5.73,8.89,4.13,3.45,-0.69,0.0,-0.08,-0.34,3845,2019-04-03 15:48:19:371
1.74,2.55,12.27,1.77,0.19,2.51,0.01,0.17,-0.28,3850,2019-04-03 15:48:19:376
1.74,2.55,12.27,1.77,0.19,2.51,0.01,0.17,-0.28,3855,2019-04-03 15:48:19:381
1.74,2.55,12.27,1.77,0.19,2.51,0.01,0.17,-0.28,3860,2019-04-03 15:48:19:386
1.74,2.55,12.27,1.77,0.19,2.51,0.01,0.17,-0.28,3865,2019-04-03 15:48:19:391
-2.66,4.29,7.32,1.77,0.19,2.51,0.0,0.12,-0.29,3870,2019-04-03 15:48:19:396
-2.66,4.29,7.32,-2.55,1.87,-2.25,0.0,0.12,-0.29,3874,2019-04-03 15:48:19:400
-2.66,4.29,7.32,-2.55,1.87,-2.25,0.0,0.12,-0.29,3879,2019-04-03 15:48:19:405
-2.66,4.29,7.32,-2.55,1.87,-2.25,0.0,0.12,-0.29,3885,2019-04-03 15:48:19:411
-2.66,4.29,7.32,-2.55,1.87,-2.25,0.0,0.12,-0.29,3890,2019-04-03 15:48:19:416
-2.66,4.29,7.32,-2.55,1.87,-2.25,0.0,0.12,-0.29,3895,2019-04-03 15:48:19:421
-2.66,4.29,7.32,-2.55,1.87,-2.25,0.0,0.12,-0.29,3900,2019-04-03 15:48:19:426
-0.97,0.83,8.81,-1.03,-1.38,-0.81,-0.26,-0.21,-0.31,3906,2019-04-03 15:48:19:432
-0.97,0.83,8.81,-1.03,-1.38,-0.81,-0.26,-0.21,-0.31,3910,2019-04-03 15:48:19:436
-0.97,0.83,8.81,-1.03,-1.38,-0.81,0.08,-0.11,-0.2,3915,2019-04-03 15:48:19:441
-0.97,0.83,8.81,-1.03,-1.38,-0.81,0.08,-0.11,-0.2,3920,2019-04-03 15:48:19:446
-0.97,0.83,8.81,-1.03,-1.38,-0.81,0.08,-0.11,-0.2,3925,2019-04-03 15:48:19:451
-0.97,0.83,8.81,-1.03,-1.38,-0.81,0.08,-0.11,-0.2,3930,2019-04-03 15:48:19:456
-0.97,0.83,8.81,-1.03,-1.38,-0.81,0.08,-0.11,-0.2,3935,2019-04-03 15:48:19:461
2.32,0.52,11.44,-1.03,-1.38,-0.81,-0.09,0.14,-0.03,3940,2019-04-03 15:48:19:466
2.32,0.52,11.44,1.8,-1.45,1.55,-0.09,0.14,-0.03,3946,2019-04-03 15:48:19:472
2.32,0.52,11.44,1.8,-1.45,1.55,-0.09,0.14,-0.03,3950,2019-04-03 15:48:19:476
-0.31,-3.07,8.93,1.8,-1.45,1.55,-0.19,0.21,0.06,3956,2019-04-03 15:48:19:482
-0.31,-3.07,8.93,1.8,-1.45,1.55,-0.19,0.21,0.06,3960,2019-04-03 15:48:19:486
-0.31,-3.07,8.93,1.8,-1.45,1.55,-0.19,0.21,0.06,3965,2019-04-03 15:48:19:491
-2.53,-0.05,2.3,1.8,-1.45,1.55,0.01,0.01,0.01,3970,2019-04-03 15:48:19:496
-2.53,-0.05,2.3,-3.01,-1.42,-7.01,0.01,0.01,0.01,3975,2019-04-03 15:48:19:501
-2.53,-0.05,2.3,-3.01,-1.42,-7.01,0.01,0.01,0.01,3980,2019-04-03 15:48:19:506
-2.53,-0.05,2.3,-3.01,-1.42,-7.01,0.01,0.01,0.01,3986,2019-04-03 15:48:19:512
-2.53,-0.05,2.3,-3.01,-1.42,-7.01,0.01,0.01,0.01,3990,2019-04-03 15:48:19:516
-2.53,-0.05,2.3,-3.01,-1.42,-7.01,0.01,0.01,0.01,3995,2019-04-03 15:48:19:521
-2.53,-0.05,2.3,-3.01,-1.42,-7.01,0.01,0.01,0.01,4000,2019-04-03 15:48:19:526
-0.05,3.34,2.67,-0.45,1.95,-5.89,0.01,-0.17,-0.04,4005,2019-04-03 15:48:19:531
-0.05,3.34,2.67,-0.45,1.95,-5.89,0.01,-0.17,-0.04,4010,2019-04-03 15:48:19:536
-2.8,4.73,4.76,-0.45,1.95,-5.89,0.07,0.0,-0.21,4016,2019-04-03 15:48:19:542
-2.8,4.73,4.76,-0.45,1.95,-5.89,0.07,0.0,-0.21,4019,2019-04-03 15:48:19:545
-2.8,4.73,4.76,-0.45,1.95,-5.89,0.07,0.0,-0.21,4025,2019-04-03 15:48:19:551
-2.8,4.73,4.76,-0.45,1.95,-5.89,0.07,0.0,-0.21,4029,2019-04-03 15:48:19:555
7.8,5.37,12.38,7.46,3.75,3.82,0.04,-0.13,-0.33,4035,2019-04-03 15:48:19:561
7.8,5.37,12.38,7.46,3.75,3.82,0.04,-0.13,-0.33,4040,2019-04-03 15:48:19:566
7.8,5.37,12.38,7.46,3.75,3.82,0.04,-0.13,-0.33,4045,2019-04-03 15:48:19:571
7.8,5.37,12.38,7.46,3.75,3.82,0.04,-0.13,-0.33,4050,2019-04-03 15:48:19:576
13.67,1.17,13.69,12.98,-0.17,5.6,-0.28,0.19,-0.29,4055,2019-04-03 15:48:19:581
13.67,1.17,13.69,12.98,-0.17,5.6,-0.28,0.19,-0.29,4060,2019-04-03 15:48:19:586
13.67,1.17,13.69,12.98,-0.17,5.6,-0.28,0.19,-0.29,4065,2019-04-03 15:48:19:591
13.67,1.17,13.69,12.98,-0.17,5.6,-0.28,0.19,-0.29,4070,2019-04-03 15:48:19:596
13.67,1.17,13.69,12.98,-0.17,5.6,-0.28,0.19,-0.29,4075,2019-04-03 15:48:19:601
-0.29,2.23,10.05,12.98,-0.17,5.6,0.25,0.77,-0.14,4080,2019-04-03 15:48:19:606
-0.29,2.23,10.05,-0.71,0.76,2.31,0.25,0.77,-0.14,4086,2019-04-03 15:48:19:612
-0.29,2.23,10.05,-0.71,0.76,2.31,0.25,0.77,-0.14,4090,2019-04-03 15:48:19:616
-5.55,6.55,2.82,-5.96,4.85,-4.67,0.0,0.0,-0.2,4095,2019-04-03 15:48:19:621
-5.55,6.55,2.82,-5.96,4.85,-4.67,0.0,0.0,-0.2,4100,2019-04-03 15:48:19:626
-5.55,6.55,2.82,-5.96,4.85,-4.67,0.0,0.0,-0.2,4106,2019-04-03 15:48:19:632
-5.55,6.55,2.82,-5.96,4.85,-4.67,0.0,0.0,-0.2,4110,2019-04-03 15:48:19:636
2.4,0.64,12.19,1.88,-1.08,4.59,-0.09,-0.35,-0.16,4115,2019-04-03 15:48:19:641
2.4,0.64,12.19,1.88,-1.08,4.59,-0.09,-0.35,-0.16,4120,2019-04-03 15:48:19:646
2.4,0.64,12.19,1.88,-1.08,4.59,-0.09,-0.35,-0.16,4125,2019-04-03 15:48:19:651
-0.28,2.81,14.55,1.88,-1.08,4.59,0.1,0.12,-0.07,4131,2019-04-03 15:48:19:657
-0.28,2.81,14.55,-0.46,0.89,6.61,0.1,0.12,-0.07,4135,2019-04-03 15:48:19:661
-0.28,2.81,14.55,-0.46,0.89,6.61,0.1,0.12,-0.07,4140,2019-04-03 15:48:19:666
-0.28,2.81,14.55,-0.46,0.89,6.61,0.1,0.12,-0.07,4144,2019-04-03 15:48:19:670
5.38,-1.51,2.82,-0.46,0.89,6.61,0.1,0.12,-0.07,4150,2019-04-03 15:48:19:676
5.38,-1.51,2.82,4.84,-3.51,-4.76,-0.09,0.04,-0.12,4155,2019-04-03 15:48:19:681
5.38,-1.51,2.82,4.84,-3.51,-4.76,-0.09,0.04,-0.12,4160,2019-04-03 15:48:19:686
5.38,-1.51,2.82,4.84,-3.51,-4.76,-0.09,0.04,-0.12,4165,2019-04-03 15:48:19:691
-1.86,-4.84,9.51,-2.32,-6.64,1.71,0.16,0.12,-0.11,4171,2019-04-03 15:48:19:697
-1.86,-4.84,9.51,-2.32,-6.64,1.71,0.16,0.12,-0.11,4175,2019-04-03 15:48:19:701
-1.86,-4.84,9.51,-2.32,-6.64,1.71,0.16,0.12,-0.11,4180,2019-04-03 15:48:19:706
-1.86,-4.84,9.51,-2.32,-6.64,1.71,0.16,0.12,-0.11,4185,2019-04-03 15:48:19:711
-1.86,-4.84,9.51,-2.32,-6.64,1.71,0.16,0.12,-0.11,4190,2019-04-03 15:48:19:716
-1.86,-4.84,9.51,-2.32,-6.64,1.71,0.16,0.12,-0.11,4195,2019-04-03 15:48:19:721
2.72,2.42,11.54,2.27,0.69,3.05,0.19,-0.06,-0.21,4201,2019-04-03 15:48:19:727
2.72,2.42,11.54,2.27,0.69,3.05,0.19,-0.06,-0.21,4205,2019-04-03 15:48:19:731
2.72,2.42,11.54,2.27,0.69,3.05,0.19,-0.06,-0.21,4211,2019-04-03 15:48:19:737
1.97,-3.32,9.84,1.42,-4.4,1.2,-0.27,0.08,-0.21,4215,2019-04-03 15:48:19:741
1.97,-3.32,9.84,1.42,-4.4,1.2,-0.27,0.08,-0.21,4220,2019-04-03 15:48:19:746
1.97,-3.32,9.84,1.42,-4.4,1.2,-0.27,0.08,-0.21,4225,2019-04-03 15:48:19:751
1.97,-3.32,9.84,1.42,-4.4,1.2,-0.27,0.08,-0.21,4230,2019-04-03 15:48:19:756
-5.18,-2.99,10.84,-5.38,-3.57,1.99,0.44,0.06,-0.19,4236,2019-04-03 15:48:19:762
-5.18,-2.99,10.84,-5.38,-3.57,1.99,0.44,0.06,-0.19,4241,2019-04-03 15:48:19:767
-5.18,-2.99,10.84,-5.38,-3.57,1.99,0.44,0.06,-0.19,4245,2019-04-03 15:48:19:771
1.98,0.79,10.23,1.88,0.62,1.0,-0.1,-0.23,-0.3,4250,2019-04-03 15:48:19:776
1.98,0.79,10.23,1.88,0.62,1.0,-0.1,-0.23,-0.3,4255,2019-04-03 15:48:19:781
1.98,0.79,10.23,1.88,0.62,1.0,-0.1,-0.23,-0.3,4260,2019-04-03 15:48:19:786
1.98,0.79,10.23,1.88,0.62,1.0,-0.1,-0.23,-0.3,4264,2019-04-03 15:48:19:790
1.98,0.79,10.23,1.88,0.62,1.0,-0.1,-0.23,-0.3,4269,2019-04-03 15:48:19:795
-1.44,-2.85,10.58,-1.7,-2.62,0.96,-0.09,0.14,-0.26,4275,2019-04-03 15:48:19:801
-1.44,-2.85,10.58,-1.7,-2.62,0.96,-0.09,0.14,-0.26,4280,2019-04-03 15:48:19:806
-1.44,-2.85,10.58,-1.7,-2.62,0.96,-0.09,0.14,-0.26,4286,2019-04-03 15:48:19:812
2.02,0.96,9.53,-1.7,-2.62,0.96,-0.09,0.14,-0.26,4291,2019-04-03 15:48:19:817
2.02,0.96,9.53,1.73,1.54,-0.22,0.18,-0.08,-0.38,4295,2019-04-03 15:48:19:821
2.02,0.96,9.53,1.73,1.54,-0.22,0.18,-0.08,-0.38,4300,2019-04-03 15:48:19:826
2.02,0.96,9.53,1.73,1.54,-0.22,0.18,-0.08,-0.38,4305,2019-04-03 15:48:19:831
2.02,0.96,9.53,1.73,1.54,-0.22,0.18,-0.08,-0.38,4310,2019-04-03 15:48:19:836
-4.74,3.8,6.44,-4.35,4.58,-3.2,-0.09,0.13,-0.31,4315,2019-04-03 15:48:19:841
-4.74,3.8,6.44,-4.35,4.58,-3.2,-0.09,0.13,-0.31,4320,2019-04-03 15:48:19:846
-4.74,3.8,6.44,-4.35,4.58,-3.2,-0.09,0.13,-0.31,4325,2019-04-03 15:48:19:851
-2.01,-0.31,2.68,-4.35,4.58,-3.2,-0.09,0.13,-0.31,4330,2019-04-03 15:48:19:856
-2.01,-0.31,2.68,-2.29,0.45,-5.89,0.13,-0.33,-0.23,4336,2019-04-03 15:48:19:862
-2.01,-0.31,2.68,-2.29,0.45,-5.89,0.13,-0.33,-0.23,4341,2019-04-03 15:48:19:867
-2.01,-0.31,2.68,-2.29,0.45,-5.89,0.13,-0.33,-0.23,4346,2019-04-03 15:48:19:872
-2.01,-0.31,2.68,-2.29,0.45,-5.89,0.13,-0.33,-0.23,4350,2019-04-03 15:48:19:876
7.81,2.79,14.29,7.25,3.21,4.85,0.09,-0.35,0.15,4355,2019-04-03 15:48:19:881
7.81,2.79,14.29,7.25,3.21,4.85,0.09,-0.35,0.15,4361,2019-04-03 15:48:19:887
7.81,2.79,14.29,7.25,3.21,4.85,0.09,-0.35,0.15,4365,2019-04-03 15:48:19:891
-3.01,5.75,7.25,7.25,3.21,4.85,0.09,-0.35,0.43,4370,2019-04-03 15:48:19:896
-3.01,5.75,7.25,-3.45,5.35,-2.34,0.14,0.35,0.43,4375,2019-04-03 15:48:19:901
-3.01,5.75,7.25,-3.45,5.35,-2.34,0.14,0.35,0.43,4380,2019-04-03 15:48:19:906
-3.01,5.75,7.25,-3.45,5.35,-2.34,0.14,0.35,0.43,4385,2019-04-03 15:48:19:911
-3.01,5.75,7.25,-3.45,5.35,-2.34,0.14,0.35,0.43,4390,2019-04-03 15:48:19:916
-3.01,5.75,7.25,-3.45,5.35,-2.34,0.14,0.35,0.43,4395,2019-04-03 15:48:19:921
-12.86,3.27,1.22,-12.86,2.7,-8.46,-0.11,0.0,0.42,4401,2019-04-03 15:48:19:927
-12.86,3.27,1.22,-12.86,2.7,-8.46,-0.11,0.0,0.42,4405,2019-04-03 15:48:19:931
-12.86,3.27,1.22,-12.86,2.7,-8.46,-0.11,0.0,0.42,4410,2019-04-03 15:48:19:936
-1.38,-3.9,9.07,-1.69,-4.75,-0.52,0.14,-0.79,0.07,4415,2019-04-03 15:48:19:941
-1.38,-3.9,9.07,-1.69,-4.75,-0.52,0.14,-0.79,0.07,4420,2019-04-03 15:48:19:946
-1.38,-3.9,9.07,-1.69,-4.75,-0.52,0.14,-0.79,0.07,4424,2019-04-03 15:48:19:950
-1.38,-3.9,9.07,-1.69,-4.75,-0.52,0.14,-0.79,0.07,4430,2019-04-03 15:48:19:956
-1.38,-3.9,9.07,-1.69,-4.75,-0.52,0.14,-0.79,0.07,4435,2019-04-03 15:48:19:961
-1.38,-3.9,9.07,-1.69,-4.75,-0.52,0.14,-0.79,0.07,4440,2019-04-03 15:48:19:966
9.79,0.4,14.47,9.37,-0.33,5.02,0.21,-0.03,0.09,4445,2019-04-03 15:48:19:971
9.79,0.4,14.47,9.37,-0.33,5.02,0.21,-0.03,0.09,4450,2019-04-03 15:48:19:976
9.79,0.4,14.47,9.37,-0.33,5.02,0.13,-0.25,0.13,4455,2019-04-03 15:48:19:981
9.79,0.4,14.47,9.37,-0.33,5.02,0.13,-0.25,0.13,4460,2019-04-03 15:48:19:986
9.79,0.4,14.47,9.37,-0.33,5.02,0.13,-0.25,0.13,4466,2019-04-03 15:48:19:992
9.79,0.4,14.47,9.37,-0.33,5.02,0.13,-0.25,0.13,4469,2019-04-03 15:48:19:995
-2.03,1.78,10.15,-2.53,0.72,0.88,0.08,-0.1,0.13,4475,2019-04-03 15:48:20:001
-2.03,1.78,10.15,-2.53,0.72,0.88,0.08,-0.1,0.13,4480,2019-04-03 15:48:20:006
-2.03,1.78,10.15,-2.53,0.72,0.88,0.08,-0.1,0.13,4485,2019-04-03 15:48:20:011
1.92,3.06,14.15,-2.53,0.72,0.88,0.05,-0.18,0.14,4490,2019-04-03 15:48:20:016
1.92,3.06,14.15,1.41,1.74,4.51,0.05,-0.18,0.14,4495,2019-04-03 15:48:20:021
1.92,3.06,14.15,1.41,1.74,4.51,0.05,-0.18,0.14,4500,2019-04-03 15:48:20:026
1.92,3.06,14.15,1.41,1.74,4.51,0.05,-0.18,0.14,4507,2019-04-03 15:48:20:033
0.35,2.18,12.34,1.41,1.74,4.51,0.05,-0.18,0.14,4510,2019-04-03 15:48:20:036
0.35,2.18,12.34,-0.34,0.81,2.51,-0.15,0.1,0.17,4515,2019-04-03 15:48:20:041
0.35,2.18,12.34,-0.34,0.81,2.51,-0.15,0.1,0.17,4520,2019-04-03 15:48:20:046
0.35,2.18,12.34,-0.34,0.81,2.51,-0.15,0.1,0.17,4525,2019-04-03 15:48:20:051
0.12,-0.64,13.71,-0.34,0.81,2.51,-0.15,0.1,0.17,4530,2019-04-03 15:48:20:056
0.12,-0.64,13.71,-0.06,-1.96,2.96,-0.11,0.01,0.11,4535,2019-04-03 15:48:20:061
0.12,-0.64,13.71,-0.06,-1.96,2.96,-0.11,0.01,0.11,4540,2019-04-03 15:48:20:066
0.12,-0.64,13.71,-0.06,-1.96,2.96,-0.11,0.01,0.11,4545,2019-04-03 15:48:20:071
0.12,-0.64,13.71,-0.06,-1.96,2.96,-0.11,0.01,0.11,4550,2019-04-03 15:48:20:076
0.12,-0.64,13.71,-0.06,-1.96,2.96,-0.11,0.01,0.11,4555,2019-04-03 15:48:20:081
0.12,-0.64,13.71,-0.06,-1.96,2.96,-0.11,0.01,0.11,4560,2019-04-03 15:48:20:086
-0.33,3.35,9.7,0.11,2.0,-0.72,0.11,0.1,0.07,4566,2019-04-03 15:48:20:092
-0.33,3.35,9.7,0.11,2.0,-0.72,0.11,0.1,0.07,4570,2019-04-03 15:48:20:096
-0.33,3.35,9.7,0.11,2.0,-0.72,0.11,0.1,0.07,4575,2019-04-03 15:48:20:101
-2.19,-2.79,14.48,0.11,2.0,-0.72,-0.24,0.16,0.03,4580,2019-04-03 15:48:20:106
-2.19,-2.79,14.48,-1.79,-3.36,3.81,-0.24,0.16,0.03,4585,2019-04-03 15:48:20:111
-2.19,-2.79,14.48,-1.79,-3.36,3.81,-0.24,0.16,0.03,4590,2019-04-03 15:48:20:116
-2.88,-1.16,15.26,-3.03,-1.29,4.25,-0.01,-0.02,-0.03,4595,2019-04-03 15:48:20:121
-2.88,-1.16,15.26,-3.03,-1.29,4.25,-0.01,-0.02,-0.03,4601,2019-04-03 15:48:20:127
-2.88,-1.16,15.26,-3.03,-1.29,4.25,-0.01,-0.02,-0.03,4605,2019-04-03 15:48:20:131
-2.88,-1.16,15.26,-3.03,-1.29,4.25,-0.01,-0.02,-0.03,4610,2019-04-03 15:48:20:136
-0.69,0.82,10.51,-0.27,0.73,-0.6,-0.25,0.05,-0.07,4615,2019-04-03 15:48:20:141
-0.69,0.82,10.51,-0.27,0.73,-0.6,-0.25,0.05,-0.07,4620,2019-04-03 15:48:20:146
-0.69,0.82,10.51,-0.27,0.73,-0.6,-0.25,0.05,-0.07,4625,2019-04-03 15:48:20:151
-1.02,-2.21,12.89,-0.27,0.73,-0.6,-0.25,0.05,-0.07,4631,2019-04-03 15:48:20:157
-1.02,-2.21,12.89,-0.5,-2.33,1.41,-0.15,0.06,-0.11,4635,2019-04-03 15:48:20:161
-1.02,-2.21,12.89,-0.5,-2.33,1.41,-0.15,0.06,-0.11,4640,2019-04-03 15:48:20:166
-1.02,-2.21,12.89,-0.5,-2.33,1.41,-0.15,0.06,-0.11,4646,2019-04-03 15:48:20:172
-1.02,-2.21,12.89,-0.5,-2.33,1.41,-0.15,0.06,-0.11,4650,2019-04-03 15:48:20:176
1.59,2.64,13.69,2.03,2.23,1.81,0.07,0.03,-0.25,4655,2019-04-03 15:48:20:181
1.59,2.64,13.69,2.03,2.23,1.81,0.07,0.03,-0.25,4660,2019-04-03 15:48:20:186
1.59,2.64,13.69,2.03,2.23,1.81,0.07,0.03,-0.25,4665,2019-04-03 15:48:20:191
1.59,2.64,13.69,2.03,2.23,1.81,0.07,0.03,-0.25,4670,2019-04-03 15:48:20:196
1.59,2.64,13.69,2.03,2.23,1.81,0.07,0.03,-0.25,4675,2019-04-03 15:48:20:201
0.62,5.08,7.97,2.03,2.23,1.81,-0.21,0.26,-0.3,4680,2019-04-03 15:48:20:206
0.62,5.08,7.97,1.56,4.53,-3.73,-0.21,0.26,-0.3,4685,2019-04-03 15:48:20:211
0.62,5.08,7.97,1.56,4.53,-3.73,-0.21,0.26,-0.3,4690,2019-04-03 15:48:20:216
-8.18,5.72,-4.89,-7.09,5.06,-14.88,-0.3,0.09,-0.35,4695,2019-04-03 15:48:20:221
-8.18,5.72,-4.89,-7.09,5.06,-14.88,-0.3,0.09,-0.35,4700,2019-04-03 15:48:20:226
-8.18,5.72,-4.89,-7.09,5.06,-14.88,-0.3,0.09,-0.35,4705,2019-04-03 15:48:20:231
-8.18,5.72,-4.89,-7.09,5.06,-14.88,-0.3,0.09,-0.35,4709,2019-04-03 15:48:20:235
-2.06,5.39,16.52,-1.69,3.98,5.99,0.14,-0.76,-0.35,4714,2019-04-03 15:48:20:240
-2.06,5.39,16.52,-1.69,3.98,5.99,0.14,-0.76,-0.35,4719,2019-04-03 15:48:20:245
-2.06,5.39,16.52,-1.69,3.98,5.99,0.14,-0.76,-0.35,4725,2019-04-03 15:48:20:251
12.65,7.61,16.04,-1.69,3.98,5.99,0.2,-0.3,-0.16,4730,2019-04-03 15:48:20:256
12.65,7.61,16.04,12.57,5.66,5.41,0.2,-0.3,-0.16,4735,2019-04-03 15:48:20:261
12.65,7.61,16.04,12.57,5.66,5.41,0.2,-0.3,-0.16,4740,2019-04-03 15:48:20:266
12.65,7.61,16.04,12.57,5.66,5.41,0.2,-0.3,-0.16,4745,2019-04-03 15:48:20:271
12.65,7.61,16.04,12.57,5.66,5.41,0.2,-0.3,-0.16,4750,2019-04-03 15:48:20:276
12.65,7.61,16.04,12.57,5.66,5.41,0.2,-0.3,-0.16,4755,2019-04-03 15:48:20:281
12.65,7.61,16.04,12.57,5.66,5.41,0.2,-0.3,-0.16,4760,2019-04-03 15:48:20:286
6.77,-3.23,7.03,6.54,-4.68,-3.21,-0.34,0.53,0.1,4765,2019-04-03 15:48:20:291
6.77,-3.23,7.03,6.54,-4.68,-3.21,-0.34,0.53,0.1,4771,2019-04-03 15:48:20:297
6.77,-3.23,7.03,6.54,-4.68,-3.21,-0.34,0.53,0.1,4775,2019-04-03 15:48:20:301
-6.75,-1.4,9.66,6.54,-4.68,-3.21,0.51,0.49,0.2,4780,2019-04-03 15:48:20:306
-6.75,-1.4,9.66,-6.79,-3.23,0.14,0.51,0.49,0.2,4785,2019-04-03 15:48:20:311
-6.75,-1.4,9.66,-6.79,-3.23,0.14,0.51,0.49,0.2,4790,2019-04-03 15:48:20:316
-6.75,-1.4,9.66,-6.79,-3.23,0.14,0.51,0.49,0.2,4795,2019-04-03 15:48:20:321
-7.01,2.32,5.02,-7.13,0.54,-4.2,-0.12,-0.23,0.21,4800,2019-04-03 15:48:20:326
-7.01,2.32,5.02,-7.13,0.54,-4.2,-0.12,-0.23,0.21,4805,2019-04-03 15:48:20:331
-7.01,2.32,5.02,-7.13,0.54,-4.2,-0.12,-0.23,0.21,4809,2019-04-03 15:48:20:335
-7.01,2.32,5.02,-4.13,1.76,-4.0,-0.33,-0.48,0.24,4815,2019-04-03 15:48:20:341
-7.01,2.32,5.02,-4.13,1.76,-4.0,-0.33,-0.48,0.24,4820,2019-04-03 15:48:20:346
-7.01,2.32,5.02,-4.13,1.76,-4.0,-0.33,-0.48,0.24,4825,2019-04-03 15:48:20:351
-7.01,2.32,5.02,-4.13,1.76,-4.0,-0.33,-0.48,0.24,4830,2019-04-03 15:48:20:356
-7.01,2.32,5.02,-4.13,1.76,-4.0,-0.33,-0.48,0.24,4835,2019-04-03 15:48:20:361
4.21,4.87,6.62,-4.13,1.76,-4.0,-0.33,-0.48,0.24,4840,2019-04-03 15:48:20:366
4.21,4.87,6.62,3.47,2.83,-2.03,0.39,0.0,0.32,4844,2019-04-03 15:48:20:370
4.21,4.87,6.62,3.47,2.83,-2.03,0.39,0.0,0.32,4851,2019-04-03 15:48:20:377
4.21,4.87,6.62,3.47,2.83,-2.03,0.39,0.0,0.32,4855,2019-04-03 15:48:20:381
4.21,4.87,6.62,3.47,2.83,-2.03,0.39,0.0,0.32,4860,2019-04-03 15:48:20:386
-0.88,-2.57,14.0,-1.66,-4.05,5.16,-0.27,0.0,0.37,4865,2019-04-03 15:48:20:391
-0.88,-2.57,14.0,-1.66,-4.05,5.16,-0.27,0.0,0.37,4869,2019-04-03 15:48:20:395
-0.88,-2.57,14.0,-1.66,-4.05,5.16,-0.31,-0.41,0.19,4875,2019-04-03 15:48:20:401
-0.88,-2.57,14.0,-1.66,-4.05,5.16,-0.31,-0.41,0.19,4881,2019-04-03 15:48:20:407
-0.88,-2.57,14.0,-1.66,-4.05,5.16,-0.31,-0.41,0.19,4885,2019-04-03 15:48:20:411
-6.48,1.97,7.55,-1.66,-4.05,5.16,-0.31,-0.41,0.19,4890,2019-04-03 15:48:20:416
-6.48,1.97,7.55,-7.11,1.08,-3.0,0.1,-0.02,0.21,4895,2019-04-03 15:48:20:421
-6.48,1.97,7.55,-7.11,1.08,-3.0,0.1,-0.02,0.21,4900,2019-04-03 15:48:20:426
-6.48,1.97,7.55,-7.11,1.08,-3.0,0.1,-0.02,0.21,4905,2019-04-03 15:48:20:431
-6.48,1.97,7.55,-7.11,1.08,-3.0,0.1,-0.02,0.21,4910,2019-04-03 15:48:20:436
7.12,-4.08,13.16,6.74,-3.85,3.11,-0.29,-0.4,0.09,4915,2019-04-03 15:48:20:441
7.12,-4.08,13.16,6.74,-3.85,3.11,-0.29,-0.4,0.09,4920,2019-04-03 15:48:20:446
7.12,-4.08,13.16,6.74,-3.85,3.11,-0.29,-0.4,0.09,4924,2019-04-03 15:48:20:450
7.12,-4.08,13.16,6.74,-3.85,3.11,-0.29,-0.4,0.09,4930,2019-04-03 15:48:20:456
3.32,1.87,10.7,3.62,2.52,1.27,0.42,0.37,0.17,4935,2019-04-03 15:48:20:461
3.32,1.87,10.7,3.62,2.52,1.27,0.42,0.37,0.17,4939,2019-04-03 15:48:20:465
3.32,1.87,10.7,3.62,2.52,1.27,0.42,0.37,0.17,4945,2019-04-03 15:48:20:471
-4.76,0.39,4.94,3.62,2.52,1.27,-0.27,0.24,0.03,4950,2019-04-03 15:48:20:476
-4.76,0.39,4.94,-4.17,1.18,-4.63,-0.27,0.24,0.03,4954,2019-04-03 15:48:20:480
-4.76,0.39,4.94,-4.17,1.18,-4.63,-0.27,0.24,0.03,4960,2019-04-03 15:48:20:486
-4.76,0.39,4.94,-4.17,1.18,-4.63,-0.27,0.24,0.03,4965,2019-04-03 15:48:20:491
-4.76,0.39,4.94,-4.17,1.18,-4.63,-0.27,0.24,0.03,4970,2019-04-03 15:48:20:496
-4.76,0.39,4.94,-4.17,1.18,-4.63,-0.27,0.24,0.03,4975,2019-04-03 15:48:20:501
-4.76,0.39,6.55,-4.17,1.18,-4.63,-0.27,0.24,0.03,4980,2019-04-03 15:48:20:506
-2.4,-7.0,6.55,-2.37,-5.77,-3.44,-0.13,-0.4,-0.2,4985,2019-04-03 15:48:20:511
-2.4,-7.0,6.55,-2.37,-5.77,-3.44,-0.13,-0.4,-0.2,4990,2019-04-03 15:48:20:516
8.35,4.78,5.78,-2.37,-5.77,-3.44,0.39,-0.16,-0.25,4995,2019-04-03 15:48:20:521
8.35,4.78,5.78,-2.37,-5.77,-3.44,0.39,-0.16,-0.25,5001,2019-04-03 15:48:20:527
8.35,4.78,5.78,-2.37,-5.77,-3.44,0.39,-0.16,-0.25,5005,2019-04-03 15:48:20:531
8.35,4.78,5.78,-2.37,-5.77,-3.44,0.39,-0.16,-0.25,5010,2019-04-03 15:48:20:536
5.37,9.66,13.56,5.51,9.82,4.38,-0.35,0.24,-0.07,5015,2019-04-03 15:48:20:541
5.37,9.66,13.56,5.51,9.82,4.38,-0.35,0.24,-0.07,5020,2019-04-03 15:48:20:546
5.37,9.66,13.56,5.51,9.82,4.38,-0.35,0.24,-0.07,5025,2019-04-03 15:48:20:551
-0.67,-3.17,14.26,5.51,9.82,4.38,-0.02,0.12,0.24,5030,2019-04-03 15:48:20:556
-0.67,-3.17,14.26,-0.47,-2.93,4.08,-0.02,0.12,0.24,5036,2019-04-03 15:48:20:562
-0.67,-3.17,14.26,-0.47,-2.93,4.08,-0.02,0.12,0.24,5040,2019-04-03 15:48:20:566
-0.83,-2.36,9.22,-0.47,-2.93,4.08,0.42,-0.16,0.43,5044,2019-04-03 15:48:20:570
-0.83,-2.36,9.22,-0.47,-2.93,4.08,0.42,-0.16,0.43,5051,2019-04-03 15:48:20:577
-0.83,-2.36,9.22,-0.47,-2.93,4.08,0.42,-0.16,0.43,5055,2019-04-03 15:48:20:581
-0.83,-2.36,9.22,-0.47,-2.93,4.08,0.42,-0.16,0.43,5059,2019-04-03 15:48:20:585
2.05,-5.57,12.51,1.73,-5.83,2.38,-0.61,-0.48,0.37,5064,2019-04-03 15:48:20:590
2.05,-5.57,12.51,1.73,-5.83,2.38,-0.61,-0.48,0.37,5069,2019-04-03 15:48:20:595
2.05,-5.57,12.51,1.73,-5.83,2.38,-0.61,-0.48,0.37,5075,2019-04-03 15:48:20:601
2.05,-5.57,12.51,1.73,-5.83,2.38,-0.61,-0.48,0.37,5080,2019-04-03 15:48:20:606
2.05,-5.57,12.51,1.73,-5.83,2.38,-0.61,-0.48,0.37,5085,2019-04-03 15:48:20:611
2.05,-5.57,12.51,1.73,-5.83,2.38,-0.61,-0.48,0.37,5090,2019-04-03 15:48:20:616
0.95,0.43,9.71,0.9,-0.13,0.47,0.6,0.15,0.31,5095,2019-04-03 15:48:20:621
0.95,0.43,9.71,0.9,-0.13,0.47,0.6,0.15,0.31,5100,2019-04-03 15:48:20:626
0.95,0.43,9.71,0.9,-0.13,0.47,0.6,0.15,0.31,5105,2019-04-03 15:48:20:631
0.88,5.16,6.4,0.9,-0.13,0.47,0.0,-0.02,0.21,5110,2019-04-03 15:48:20:636
0.88,5.16,6.4,1.04,4.4,-2.59,0.0,-0.02,0.21,5115,2019-04-03 15:48:20:641
0.88,5.16,6.4,1.04,4.4,-2.59,0.0,-0.02,0.21,5119,2019-04-03 15:48:20:645
0.88,5.16,6.4,1.04,4.4,-2.59,-0.28,-0.1,0.23,5125,2019-04-03 15:48:20:651
0.88,5.16,6.4,1.04,4.4,-2.59,-0.28,-0.1,0.23,5130,2019-04-03 15:48:20:656
0.88,5.16,6.4,1.04,4.4,-2.59,-0.28,-0.1,0.23,5135,2019-04-03 15:48:20:661
3.94,0.36,11.21,1.04,4.4,-2.59,0.47,0.3,0.28,5140,2019-04-03 15:48:20:666
3.94,0.36,11.21,3.49,-0.63,1.9,0.47,0.3,0.28,5145,2019-04-03 15:48:20:671
3.94,0.36,11.21,3.49,-0.63,1.9,0.47,0.3,0.28,5150,2019-04-03 15:48:20:676
3.94,0.36,11.21,3.49,-0.63,1.9,0.47,0.3,0.28,5155,2019-04-03 15:48:20:681
3.94,0.36,11.21,3.49,-0.63,1.9,0.47,0.3,0.28,5160,2019-04-03 15:48:20:686
-4.32,2.46,8.78,-4.52,1.21,-0.87,-0.14,0.28,0.26,5165,2019-04-03 15:48:20:691
-4.32,2.46,8.78,-4.52,1.21,-0.87,-0.14,0.28,0.26,5170,2019-04-03 15:48:20:696
-4.32,2.46,8.78,-4.52,1.21,-0.87,-0.14,0.28,0.26,5175,2019-04-03 15:48:20:701
-1.99,2.15,14.87,-4.52,1.21,-0.87,-0.14,0.28,0.26,5180,2019-04-03 15:48:20:706
-1.99,2.15,14.87,-2.04,0.72,3.99,-0.09,-0.19,0.17,5185,2019-04-03 15:48:20:711
-1.99,2.15,14.87,-2.04,0.72,3.99,-0.09,-0.19,0.17,5190,2019-04-03 15:48:20:716
-1.99,2.15,14.87,-2.04,0.72,3.99,-0.09,-0.19,0.17,5195,2019-04-03 15:48:20:721
-1.99,2.15,14.87,-2.04,0.72,3.99,-0.09,-0.19,0.17,5200,2019-04-03 15:48:20:726
-1.99,2.15,14.87,-2.04,0.72,3.99,-0.09,-0.19,0.17,5205,2019-04-03 15:48:20:731
0.53,5.41,5.93,-2.04,0.72,3.99,-0.09,-0.19,0.17,5210,2019-04-03 15:48:20:736
0.53,5.41,5.93,0.85,3.68,-4.9,0.24,0.03,0.15,5215,2019-04-03 15:48:20:741
0.53,5.41,5.93,0.85,3.68,-4.9,0.24,0.03,0.15,5220,2019-04-03 15:48:20:746
0.53,5.41,5.93,0.85,3.68,-4.9,0.09,-0.27,-0.05,5225,2019-04-03 15:48:20:751
0.53,5.41,5.93,0.85,3.68,-4.9,0.09,-0.27,-0.05,5230,2019-04-03 15:48:20:756
0.53,5.41,5.93,0.85,3.68,-4.9,0.09,-0.27,-0.05,5235,2019-04-03 15:48:20:761
-7.11,-6.62,4.21,0.85,3.68,-4.9,0.09,-0.27,-0.05,5240,2019-04-03 15:48:20:766
-7.11,-6.62,4.21,-6.67,-6.75,-5.48,-0.12,0.14,0.08,5245,2019-04-03 15:48:20:771
-7.11,-6.62,4.21,-6.67,-6.75,-5.48,-0.12,0.14,0.08,5250,2019-04-03 15:48:20:776
-7.11,-6.62,4.21,-6.67,-6.75,-5.48,-0.12,0.14,0.08,5255,2019-04-03 15:48:20:781
-7.11,-6.62,4.21,-6.67,-6.75,-5.48,-0.12,0.14,0.08,5260,2019-04-03 15:48:20:786
-0.87,0.02,5.14,-0.59,-0.41,-4.17,-0.01,-0.23,0.0,5265,2019-04-03 15:48:20:791
-0.87,0.02,5.14,-0.59,-0.41,-4.17,-0.01,-0.23,0.0,5270,2019-04-03 15:48:20:796
-0.87,0.02,5.14,-0.59,-0.41,-4.17,-0.01,-0.23,0.0,5275,2019-04-03 15:48:20:801
3.02,-1.01,10.07,-0.59,-0.41,-4.17,0.05,0.07,0.06,5280,2019-04-03 15:48:20:806
3.02,-1.01,10.07,2.97,-1.05,0.18,0.05,0.07,0.06,5285,2019-04-03 15:48:20:811
3.02,-1.01,10.07,2.97,-1.05,0.18,0.05,0.07,0.06,5290,2019-04-03 15:48:20:816
3.02,-1.01,10.07,2.97,-1.05,0.18,0.05,0.07,0.06,5295,2019-04-03 15:48:20:821
3.02,-1.01,10.07,2.97,-1.05,0.18,0.05,0.07,0.06,5300,2019-04-03 15:48:20:826
3.02,-1.01,10.07,2.97,-1.05,0.18,0.05,0.07,0.06,5305,2019-04-03 15:48:20:831
-3.42,-1.46,12.68,2.97,-1.05,0.18,-0.17,0.25,0.04,5310,2019-04-03 15:48:20:836
-3.42,-1.46,12.68,-3.23,-1.32,2.56,-0.17,0.25,0.04,5315,2019-04-03 15:48:20:841
-3.42,-1.46,12.68,-3.23,-1.32,2.56,-0.17,0.25,0.04,5320,2019-04-03 15:48:20:846
-3.42,-1.46,12.68,-3.23,-1.32,2.56,-0.17,0.25,0.04,5325,2019-04-03 15:48:20:851
-3.42,-1.46,12.68,-3.23,-1.32,2.56,-0.17,0.25,0.04,5330,2019-04-03 15:48:20:856
-1.84,-0.62,4.08,-1.56,-0.5,-5.34,-0.12,-0.03,0.0,5335,2019-04-03 15:48:20:861
-1.84,-0.62,4.08,-1.56,-0.5,-5.34,-0.12,-0.03,0.0,5340,2019-04-03 15:48:20:866
-1.84,-0.62,4.08,-1.56,-0.5,-5.34,0.0,-0.01,0.0,5345,2019-04-03 15:48:20:871
-1.84,-0.62,4.08,-1.56,-0.5,-5.34,0.0,-0.01,0.0,5349,2019-04-03 15:48:20:875
-1.84,-0.62,4.08,-1.56,-0.5,-5.34,0.0,-0.01,0.0,5355,2019-04-03 15:48:20:881
-1.84,-0.62,4.08,-1.56,-0.5,-5.34,0.0,-0.01,0.0,5360,2019-04-03 15:48:20:886
-2.77,6.05,7.25,-2.29,5.23,-1.78,0.15,-0.07,-0.03,5365,2019-04-03 15:48:20:891
-2.77,6.05,7.25,-2.29,5.23,-1.78,0.15,-0.07,-0.03,5370,2019-04-03 15:48:20:896
-2.77,6.05,7.25,-2.29,5.23,-1.78,0.15,-0.07,-0.03,5375,2019-04-03 15:48:20:901
-0.89,4.69,10.98,-2.29,5.23,-1.78,0.15,-0.07,-0.03,5380,2019-04-03 15:48:20:906
-0.89,4.69,10.98,-0.52,3.7,2.49,0.04,-0.03,-0.06,5385,2019-04-03 15:48:20:911
-0.89,4.69,10.98,-0.52,3.7,2.49,0.04,-0.03,-0.06,5390,2019-04-03 15:48:20:916
-0.89,4.69,10.98,-0.52,3.7,2.49,0.04,-0.03,-0.06,5395,2019-04-03 15:48:20:921
-0.89,4.69,10.98,-0.52,3.7,2.49,0.04,-0.03,-0.06,5400,2019-04-03 15:48:20:926
-0.89,4.69,10.98,-0.52,3.7,2.49,0.04,-0.03,-0.06,5405,2019-04-03 15:48:20:931
-0.89,4.69,10.98,-0.52,3.7,2.49,0.04,-0.03,-0.06,5410,2019-04-03 15:48:20:936
7.95,-6.24,13.96,7.73,-6.39,5.31,-0.04,-0.2,-0.1,5415,2019-04-03 15:48:20:941
7.95,-6.24,13.96,7.73,-6.39,5.31,-0.04,-0.2,-0.1,5420,2019-04-03 15:48:20:946
7.95,-6.24,13.96,7.73,-6.39,5.31,-0.04,-0.2,-0.1,5425,2019-04-03 15:48:20:951
7.95,-6.24,13.96,7.73,-6.39,5.31,-0.04,-0.2,-0.1,5429,2019-04-03 15:48:20:955
2.06,7.81,3.49,2.01,6.91,-4.52,0.38,0.5,0.04,5436,2019-04-03 15:48:20:962
2.06,7.81,3.49,2.01,6.91,-4.52,0.38,0.5,0.04,5439,2019-04-03 15:48:20:965
-12.04,12.84,4.0,2.01,6.91,-4.52,-0.31,-0.11,0.0,5444,2019-04-03 15:48:20:970
-12.04,12.84,4.0,2.01,6.91,-4.52,-0.31,-0.11,0.0,5451,2019-04-03 15:48:20:977
-12.04,12.84,4.0,2.01,6.91,-4.52,-0.31,-0.11,0.0,5455,2019-04-03 15:48:20:981
-12.04,12.84,4.0,2.01,6.91,-4.52,-0.31,-0.11,0.0,5461,2019-04-03 15:48:20:987
14.91,-4.6,16.93,14.67,-7.24,7.04,0.34,0.0,0.02,5465,2019-04-03 15:48:20:991
14.91,-4.6,16.93,14.67,-7.24,7.04,0.34,0.0,0.02,5470,2019-04-03 15:48:20:996
14.91,-4.6,16.93,14.67,-7.24,7.04,0.34,0.0,0.02,5475,2019-04-03 15:48:21:001
-8.98,2.22,5.5,-8.55,-0.16,-4.49,0.28,0.89,0.27,5481,2019-04-03 15:48:21:007
-8.98,2.22,5.5,-8.55,-0.16,-4.49,0.28,0.89,0.27,5485,2019-04-03 15:48:21:011
-8.98,2.22,5.5,-8.55,-0.16,-4.49,0.28,0.89,0.27,5490,2019-04-03 15:48:21:016
-8.98,2.22,5.5,-8.55,-0.16,-4.49,0.28,0.89,0.27,5495,2019-04-03 15:48:21:021
-8.98,2.22,5.5,-8.55,-0.16,-4.49,0.28,0.89,0.27,5500,2019-04-03 15:48:21:026
-8.98,2.22,5.5,-8.55,-0.16,-4.49,0.28,0.89,0.27,5505,2019-04-03 15:48:21:031
-8.98,2.22,5.5,-8.55,-0.16,-4.49,0.28,0.89,0.27,5510,2019-04-03 15:48:21:036
-7.24,-2.17,9.64,-7.27,-4.54,-0.67,-0.39,-0.46,0.02,5515,2019-04-03 15:48:21:041
-7.24,-2.17,9.64,-7.27,-4.54,-0.67,-0.39,-0.46,0.02,5520,2019-04-03 15:48:21:046
-7.24,-2.17,9.64,-7.27,-4.54,-0.67,-0.39,-0.46,0.02,5525,2019-04-03 15:48:21:051
0.11,0.54,7.45,-7.27,-4.54,-0.67,0.25,-0.34,0.05,5529,2019-04-03 15:48:21:055
0.11,0.54,7.45,0.22,-2.16,-3.28,0.25,-0.34,0.05,5536,2019-04-03 15:48:21:062
0.11,0.54,7.45,0.22,-2.16,-3.28,0.25,-0.34,0.05,5540,2019-04-03 15:48:21:066
0.11,0.54,7.45,0.22,-2.16,-3.28,0.25,-0.34,0.05,5545,2019-04-03 15:48:21:071
-2.92,2.23,7.85,-2.8,-0.06,-3.13,0.0,0.03,0.13,5550,2019-04-03 15:48:21:076
-2.92,2.23,7.85,-2.8,-0.06,-3.13,0.0,0.03,0.13,5555,2019-04-03 15:48:21:081
-2.92,2.23,7.85,-2.8,-0.06,-3.13,0.0,0.03,0.13,5560,2019-04-03 15:48:21:086
-2.13,1.64,11.66,-1.98,6.89,1.32,-0.38,-0.31,-0.01,5565,2019-04-03 15:48:21:091
-2.13,1.64,11.66,-1.98,6.89,1.32,-0.38,-0.31,-0.01,5570,2019-04-03 15:48:21:096
-2.13,1.64,11.66,-1.98,6.89,1.32,-0.38,-0.31,-0.01,5575,2019-04-03 15:48:21:101
-2.13,1.64,11.66,-1.98,6.89,1.32,-0.38,-0.31,-0.01,5580,2019-04-03 15:48:21:106
-2.13,1.64,11.66,-1.98,6.89,1.32,-0.38,-0.31,-0.01,5585,2019-04-03 15:48:21:111
5.35,3.51,19.53,-1.98,6.89,1.32,0.4,-0.3,-0.09,5590,2019-04-03 15:48:21:116
5.35,3.51,19.53,5.14,1.71,7.53,0.4,-0.3,-0.09,5595,2019-04-03 15:48:21:121
5.35,3.51,19.53,5.14,1.71,7.53,0.4,-0.3,-0.09,5600,2019-04-03 15:48:21:126
5.35,3.51,19.53,5.14,1.71,7.53,0.0,0.26,0.03,5606,2019-04-03 15:48:21:132
5.35,3.51,19.53,5.14,1.71,7.53,0.0,0.26,0.03,5611,2019-04-03 15:48:21:137
5.35,3.51,19.53,5.14,1.71,7.53,0.0,0.26,0.03,5617,2019-04-03 15:48:21:143
5.35,3.51,19.53,5.14,1.71,7.53,0.0,0.26,0.03,5620,2019-04-03 15:48:21:146
5.35,3.51,19.53,5.14,1.71,7.53,0.0,0.26,0.03,5625,2019-04-03 15:48:21:151
-1.66,-3.66,10.79,-1.47,-4.61,-1.92,-0.28,0.11,0.0,5630,2019-04-03 15:48:21:156
-1.66,-3.66,10.79,-1.47,-4.61,-1.92,-0.28,0.11,0.0,5635,2019-04-03 15:48:21:161
-1.66,-3.66,10.79,-1.47,-4.61,-1.92,-0.28,0.11,0.0,5640,2019-04-03 15:48:21:166
-1.66,-3.66,10.79,-8.98,-4.04,-0.63,0.33,-0.27,-0.11,5648,2019-04-03 15:48:21:174
-1.66,-3.66,10.79,-8.98,-4.04,-0.63,0.33,-0.27,-0.11,5649,2019-04-03 15:48:21:175
-1.66,-3.66,10.79,-8.98,-4.04,-0.63,0.33,-0.27,-0.11,5655,2019-04-03 15:48:21:181
-1.66,-3.66,10.79,-8.98,-4.04,-0.63,0.33,-0.27,-0.11,5660,2019-04-03 15:48:21:186
6.61,-2.57,15.45,7.22,-2.43,3.52,-0.13,0.17,-0.04,5666,2019-04-03 15:48:21:192
6.61,-2.57,15.45,7.22,-2.43,3.52,-0.13,0.17,-0.04,5670,2019-04-03 15:48:21:196
6.61,-2.57,15.45,7.22,-2.43,3.52,-0.13,0.17,-0.04,5675,2019-04-03 15:48:21:201
6.61,-2.57,15.45,7.22,-2.43,3.52,-0.13,0.17,-0.04,5681,2019-04-03 15:48:21:207
-10.45,-1.04,7.6,-10.26,-0.71,-3.64,-0.22,0.29,0.0,5686,2019-04-03 15:48:21:212
-10.45,-1.04,7.6,-10.26,-0.71,-3.64,-0.22,0.29,0.0,5690,2019-04-03 15:48:21:216
-10.45,-1.04,7.6,-10.26,-0.71,-3.64,-0.22,0.29,0.0,5697,2019-04-03 15:48:21:223
-10.45,-1.04,7.6,-10.26,-0.71,-3.64,-0.22,0.29,0.0,5701,2019-04-03 15:48:21:227
-10.45,-1.04,7.6,-10.26,-0.71,-3.64,-0.22,0.29,0.0,5705,2019-04-03 15:48:21:231
-10.45,-1.04,7.6,-10.26,-0.71,-3.64,-0.22,0.29,0.0,5711,2019-04-03 15:48:21:237
10.11,-0.13,22.55,10.15,-0.41,11.19,0.11,-0.58,-0.27,5715,2019-04-03 15:48:21:241
10.11,-0.13,22.55,10.15,-0.41,11.19,0.11,-0.58,-0.27,5720,2019-04-03 15:48:21:246
10.11,-0.13,22.55,10.15,-0.41,11.19,0.11,-0.58,-0.27,5728,2019-04-03 15:48:21:254
10.11,-0.13,22.55,10.15,-0.41,11.19,0.11,-0.58,-0.27,5729,2019-04-03 15:48:21:255
10.11,-0.13,22.55,10.15,-0.41,11.19,0.11,-0.58,-0.27,5735,2019-04-03 15:48:21:261
10.11,-0.13,22.55,10.15,-0.41,11.19,0.11,-0.58,-0.27,5741,2019-04-03 15:48:21:267
10.11,-0.13,22.55,10.15,-0.41,11.19,0.11,-0.58,-0.27,5745,2019-04-03 15:48:21:271
10.11,-0.13,22.55,10.15,-0.41,11.19,0.11,-0.58,-0.27,5750,2019-04-03 15:48:21:276
-4.59,-3.54,4.43,-4.25,-3.36,-7.19,-0.49,-0.38,-0.3,5755,2019-04-03 15:48:21:281
-4.59,-3.54,4.43,-4.25,-3.36,-7.19,0.28,-0.38,-0.26,5761,2019-04-03 15:48:21:287
-4.59,-3.54,4.43,-4.25,-3.36,-7.19,0.28,-0.38,-0.26,5766,2019-04-03 15:48:21:292
5.14,-0.29,10.72,5.03,0.15,-0.5,0.28,-0.38,-0.26,5771,2019-04-03 15:48:21:297
5.14,-0.29,10.72,5.03,0.15,-0.5,0.28,-0.38,-0.26,5775,2019-04-03 15:48:21:301
-1.44,2.06,10.62,5.03,0.15,-0.5,0.02,-0.15,-0.16,5782,2019-04-03 15:48:21:308
-1.44,2.06,10.62,-1.22,2.58,-0.16,0.02,-0.15,-0.16,5784,2019-04-03 15:48:21:310
-1.44,2.06,10.62,-1.22,2.58,-0.16,0.02,-0.15,-0.16,5791,2019-04-03 15:48:21:317
-1.44,2.06,10.62,-1.22,2.58,-0.16,0.02,-0.15,-0.16,5797,2019-04-03 15:48:21:323
-1.44,2.06,10.62,-1.22,2.58,-0.16,0.02,-0.15,-0.16,5800,2019-04-03 15:48:21:326
-1.44,2.06,10.62,-1.22,2.58,-0.16,0.02,-0.15,-0.16,5806,2019-04-03 15:48:21:332
-1.44,2.06,10.62,-1.22,2.58,-0.16,0.02,-0.15,-0.16,5810,2019-04-03 15:48:21:336
5.41,0.14,23.86,5.41,0.29,12.4,-0.36,0.17,-0.03,5817,2019-04-03 15:48:21:343
5.41,0.14,23.86,5.41,0.29,12.4,-0.36,0.17,-0.03,5821,2019-04-03 15:48:21:347
5.41,0.14,23.86,5.41,0.29,12.4,-0.36,0.17,-0.03,5825,2019-04-03 15:48:21:351
-7.85,-1.19,8.99,-7.42,-1.39,-2.16,0.12,0.36,0.06,5831,2019-04-03 15:48:21:357
-7.85,-1.19,8.99,-7.42,-1.39,-2.16,0.12,0.36,0.06,5835,2019-04-03 15:48:21:361
-7.85,-1.19,8.99,-7.42,-1.39,-2.16,0.12,0.36,0.06,5840,2019-04-03 15:48:21:366
-7.85,-1.19,8.99,-7.42,-1.39,-6.65,-0.15,-0.54,-0.04,5847,2019-04-03 15:48:21:373
-5.9,2.79,4.75,-5.64,2.84,-6.65,-0.15,-0.54,-0.04,5852,2019-04-03 15:48:21:378
-5.9,2.79,4.75,-5.64,2.84,-6.65,-0.15,-0.54,-0.04,5855,2019-04-03 15:48:21:381
-5.9,2.79,4.75,-5.64,2.84,-6.65,0.15,-0.24,0.08,5860,2019-04-03 15:48:21:386
-4.33,3.2,4.34,3.75,-4.05,3.58,0.15,-0.24,0.08,5867,2019-04-03 15:48:21:393
-4.33,3.2,4.34,3.75,-4.05,3.58,0.15,-0.24,0.08,5870,2019-04-03 15:48:21:396
-4.33,3.2,4.34,3.75,-4.05,3.58,0.15,-0.24,0.08,5875,2019-04-03 15:48:21:401
6.76,8.0,6.44,3.75,-4.05,3.58,0.37,0.33,0.15,5880,2019-04-03 15:48:21:406
6.76,8.0,6.44,6.33,6.4,-5.19,0.37,0.33,0.15,5885,2019-04-03 15:48:21:411
6.76,8.0,6.44,6.33,6.4,-5.19,0.37,0.33,0.15,5890,2019-04-03 15:48:21:416
6.76,8.0,6.44,6.33,6.4,-5.19,0.37,0.33,0.15,5894,2019-04-03 15:48:21:420
6.76,8.0,6.44,6.33,6.4,-5.19,0.37,0.33,0.15,5901,2019-04-03 15:48:21:427
6.76,8.0,6.44,6.33,6.4,-5.19,0.37,0.33,0.15,5905,2019-04-03 15:48:21:431
6.76,8.0,6.44,6.33,6.4,-5.19,0.37,0.33,0.15,5910,2019-04-03 15:48:21:436
4.15,-1.54,2.25,3.84,-2.6,-8.02,-0.36,0.22,0.21,5916,2019-04-03 15:48:21:442
4.15,-1.54,2.25,3.84,-2.6,-8.02,-0.36,0.22,0.21,5920,2019-04-03 15:48:21:446
4.15,-1.54,2.25,3.84,-2.6,-8.02,-0.36,0.22,0.21,5925,2019-04-03 15:48:21:451
0.44,-1.57,2.51,3.84,-2.6,-8.02,-0.36,0.22,0.21,5930,2019-04-03 15:48:21:456
0.44,-1.57,2.51,-0.73,-2.93,-7.06,0.46,-0.03,0.23,5935,2019-04-03 15:48:21:461
2.87,4.75,12.65,-0.73,-2.93,-7.06,0.24,0.15,0.26,5942,2019-04-03 15:48:21:468
2.87,4.75,12.65,-0.73,-2.93,-7.06,0.24,0.15,0.26,5946,2019-04-03 15:48:21:472
2.87,4.75,12.65,-0.73,-2.93,-7.06,0.24,0.15,0.26,5950,2019-04-03 15:48:21:476
2.87,4.75,12.65,-0.73,-2.93,-7.06,0.24,0.15,0.26,5955,2019-04-03 15:48:21:481
2.87,4.75,12.65,-0.73,-2.93,-7.06,0.24,0.15,0.26,5960,2019-04-03 15:48:21:486
-0.76,-1.39,10.91,-0.94,-2.98,1.25,-0.25,0.28,0.13,5968,2019-04-03 15:48:21:494
-0.76,-1.39,10.91,-0.94,-2.98,1.25,-0.25,0.28,0.13,5971,2019-04-03 15:48:21:497
-0.76,-1.39,10.91,-0.94,-2.98,1.25,-0.25,0.28,0.13,5976,2019-04-03 15:48:21:502
-4.12,-0.85,9.32,-0.94,-2.98,1.25,-0.25,0.28,0.13,5980,2019-04-03 15:48:21:506
-4.12,-0.85,9.32,-4.05,-2.48,-0.59,0.43,-0.17,0.03,5985,2019-04-03 15:48:21:511
-4.12,-0.85,9.32,-4.05,-2.48,-0.59,0.43,-0.17,0.03,5991,2019-04-03 15:48:21:517
-4.12,-0.85,9.32,-4.05,-2.48,-0.59,0.43,-0.17,0.03,5997,2019-04-03 15:48:21:523
4.5,3.09,11.92,4.3,1.58,2.39,0.12,-0.23,0.04,6000,2019-04-03 15:48:21:526
4.5,3.09,11.92,4.3,1.58,2.39,0.12,-0.23,0.04,6005,2019-04-03 15:48:21:531
4.5,3.09,11.92,4.3,1.58,2.39,0.12,-0.23,0.04,6010,2019-04-03 15:48:21:536
4.5,3.09,11.92,4.3,1.58,2.39,0.12,-0.23,0.04,6016,2019-04-03 15:48:21:542
-3.86,-0.69,13.45,-3.99,-1.89,3.25,-0.28,0.29,0.09,6020,2019-04-03 15:48:21:546
-3.86,-0.69,13.45,-3.99,-1.89,3.25,-0.28,0.29,0.09,6025,2019-04-03 15:48:21:551
-3.86,-0.69,13.45,-3.99,-1.89,3.25,-0.28,0.29,0.09,6031,2019-04-03 15:48:21:557
-3.86,-0.69,13.45,-3.99,-1.89,3.25,-0.28,0.29,0.09,6035,2019-04-03 15:48:21:561
-5.0,-1.6,8.14,-3.99,-1.89,3.25,0.13,-0.29,-0.04,6040,2019-04-03 15:48:21:566
-5.0,-1.6,8.14,-3.99,-1.89,3.25,0.13,-0.29,-0.04,6045,2019-04-03 15:48:21:571
-5.0,-1.6,8.14,-5.08,-2.93,-2.16,0.13,-0.29,-0.04,6050,2019-04-03 15:48:21:576
-5.0,-1.6,8.14,-5.08,-2.93,-2.16,0.13,-0.29,-0.04,6055,2019-04-03 15:48:21:581
-5.0,-1.6,8.14,-5.08,-2.93,-2.16,0.13,-0.29,-0.04,6060,2019-04-03 15:48:21:586
-3.35,3.15,15.0,-3.26,1.81,4.73,0.02,-0.26,0.0,6067,2019-04-03 15:48:21:593
-3.35,3.15,15.0,-3.26,1.81,4.73,0.02,-0.26,0.0,6069,2019-04-03 15:48:21:595
-3.35,3.15,15.0,-3.26,1.81,4.73,0.02,-0.26,0.0,6075,2019-04-03 15:48:21:601
-3.35,3.15,15.0,-3.26,1.81,4.73,0.02,-0.26,0.0,6082,2019-04-03 15:48:21:608
-3.35,3.15,15.0,-3.26,1.81,4.73,0.02,-0.26,0.0,6086,2019-04-03 15:48:21:612
4.27,2.55,10.3,4.42,1.5,-0.1,0.0,0.11,0.01,6091,2019-04-03 15:48:21:617
4.27,2.55,10.3,4.42,1.5,-0.1,0.0,0.11,0.01,6097,2019-04-03 15:48:21:623
4.27,2.55,10.3,4.42,1.5,-0.1,0.0,0.11,0.01,6100,2019-04-03 15:48:21:626
4.27,2.55,10.3,4.42,1.5,-0.1,0.0,0.11,0.01,6105,2019-04-03 15:48:21:631
2.98,0.54,10.44,3.47,-0.72,-0.77,0.03,0.3,0.06,6110,2019-04-03 15:48:21:636
2.98,0.54,10.44,3.47,-0.72,-0.77,0.03,0.3,0.06,6116,2019-04-03 15:48:21:642
2.98,0.54,10.44,3.47,-0.72,-0.77,0.03,0.3,0.06,6121,2019-04-03 15:48:21:647
2.98,0.54,10.44,3.47,-0.72,-0.77,0.03,0.3,0.06,6125,2019-04-03 15:48:21:651
-0.29,2.56,7.37,3.47,-0.72,-0.77,0.03,0.3,0.06,6130,2019-04-03 15:48:21:656
-0.29,2.56,7.37,0.19,1.47,-4.28,0.04,0.03,0.09,6135,2019-04-03 15:48:21:661
-0.29,2.56,7.37,0.19,1.47,-4.28,0.04,0.03,0.09,6140,2019-04-03 15:48:21:666
-0.29,2.56,7.37,3.59,-0.25,2.4,-0.07,0.34,0.23,6147,2019-04-03 15:48:21:673
-0.29,2.56,7.37,3.59,-0.25,2.4,-0.07,0.34,0.23,6150,2019-04-03 15:48:21:676
-0.29,2.56,7.37,3.59,-0.25,2.4,-0.07,0.34,0.23,6155,2019-04-03 15:48:21:681
1.04,-4.27,17.88,3.59,-0.25,2.4,-0.07,0.34,0.23,6161,2019-04-03 15:48:21:687
1.04,-4.27,17.88,0.81,-5.07,5.27,-0.1,-0.15,0.21,6165,2019-04-03 15:48:21:691
1.04,-4.27,17.88,0.81,-5.07,5.27,-0.1,-0.15,0.21,6169,2019-04-03 15:48:21:695
1.04,-4.27,17.88,0.81,-5.07,5.27,-0.1,-0.15,0.21,6176,2019-04-03 15:48:21:702
1.04,-4.27,17.88,0.81,-5.07,5.27,-0.1,-0.15,0.21,6181,2019-04-03 15:48:21:707
-6.54,3.8,10.72,-6.41,2.89,-1.76,-0.07,0.27,0.3,6185,2019-04-03 15:48:21:711
-6.54,3.8,10.72,-6.41,2.89,-1.76,-0.07,0.27,0.3,6191,2019-04-03 15:48:21:717
-6.54,3.8,10.72,-6.41,2.89,-1.76,-0.07,0.27,0.3,6195,2019-04-03 15:48:21:721
-4.25,-3.96,12.66,-3.76,-4.51,0.3,-0.26,-0.18,0.12,6200,2019-04-03 15:48:21:726
-4.25,-3.96,12.66,-3.76,-4.51,0.3,-0.26,-0.18,0.12,6205,2019-04-03 15:48:21:731
-4.25,-3.96,12.66,-3.76,-4.51,0.3,-0.26,-0.18,0.12,6211,2019-04-03 15:48:21:737
-4.25,-3.96,12.66,-3.76,-4.51,0.3,-0.26,-0.18,0.12,6216,2019-04-03 15:48:21:742
-0.13,-2.16,9.59,-0.04,-2.67,-1.99,0.0,0.07,0.05,6220,2019-04-03 15:48:21:746
-0.13,-2.16,9.59,-0.04,-2.67,-1.99,0.0,0.07,0.05,6227,2019-04-03 15:48:21:753
-0.13,-2.16,9.59,-0.04,-2.67,-1.99,0.0,0.07,0.05,6230,2019-04-03 15:48:21:756
-0.13,-2.16,9.59,-0.04,-2.67,-1.99,0.0,0.07,0.05,6235,2019-04-03 15:48:21:761
1.61,0.5,7.69,-0.04,-2.67,-1.99,0.0,0.07,0.05,6243,2019-04-03 15:48:21:769
1.61,0.5,7.69,1.9,0.12,-3.26,-0.12,0.21,-0.09,6246,2019-04-03 15:48:21:772
1.61,0.5,7.69,1.9,0.12,-3.26,-0.12,0.21,-0.09,6250,2019-04-03 15:48:21:776
1.61,0.5,7.69,1.9,0.12,-3.26,-0.12,0.21,-0.09,6255,2019-04-03 15:48:21:781
-4.22,2.31,10.84,-3.55,1.84,0.44,0.0,0.17,-0.19,6260,2019-04-03 15:48:21:786
-4.22,2.31,10.84,-3.55,1.84,0.44,0.0,0.17,-0.19,6265,2019-04-03 15:48:21:791
-4.22,2.31,10.84,-3.55,1.84,0.44,0.0,0.17,-0.19,6270,2019-04-03 15:48:21:796
-4.22,2.31,10.84,-3.55,1.84,0.44,0.0,0.17,-0.19,6275,2019-04-03 15:48:21:801
-4.22,2.31,10.84,-3.55,1.84,0.44,0.0,0.17,-0.19,6280,2019-04-03 15:48:21:806
-4.22,2.31,10.84,-3.55,1.84,0.44,0.0,0.17,-0.19,6285,2019-04-03 15:48:21:811
5.73,-3.5,15.19,-3.55,1.84,0.44,0.0,0.17,-0.19,6292,2019-04-03 15:48:21:818
5.73,-3.5,15.19,6.15,-3.43,4.78,-0.08,-0.11,-0.23,6295,2019-04-03 15:48:21:821
5.73,-3.5,15.19,6.15,-3.43,4.78,-0.08,-0.11,-0.23,6300,2019-04-03 15:48:21:826
5.73,-3.5,15.19,6.15,-3.43,4.78,-0.08,-0.11,-0.23,6305,2019-04-03 15:48:21:831
5.73,-3.5,15.19,6.15,-3.43,4.78,-0.08,-0.11,-0.23,6310,2019-04-03 15:48:21:836
5.73,-3.5,15.19,6.15,-3.43,4.78,-0.08,-0.11,-0.23,6314,2019-04-03 15:48:21:840
-0.94,1.68,6.95,-0.4,1.36,-3.18,0.38,0.25,-0.1,6321,2019-04-03 15:48:21:847
-0.94,1.68,6.95,-0.4,1.36,-3.18,0.38,0.25,-0.1,6325,2019-04-03 15:48:21:851
-0.94,1.68,6.95,-0.4,1.36,-3.18,0.38,0.25,-0.1,6331,2019-04-03 15:48:21:857
-4.03,6.15,6.3,-3.62,5.59,-3.69,-0.09,-0.34,-0.16,6335,2019-04-03 15:48:21:861
-4.03,6.15,6.3,-3.62,5.59,-3.69,-0.09,-0.34,-0.16,6343,2019-04-03 15:48:21:869
-2.28,3.33,5.1,2.43,-2.3,-4.44,-0.11,0.1,0.07,6347,2019-04-03 15:48:21:873
-2.28,3.33,5.1,2.43,-2.3,-4.44,-0.11,0.1,0.07,6350,2019-04-03 15:48:21:876
-2.28,3.33,5.1,2.43,-2.3,-4.44,-0.11,0.1,0.07,6355,2019-04-03 15:48:21:881
-2.28,3.33,5.1,2.43,-2.3,-4.44,-0.11,0.1,0.07,6360,2019-04-03 15:48:21:886
0.36,0.51,6.18,0.55,-0.32,-2.28,0.35,0.13,0.15,6366,2019-04-03 15:48:21:892
0.36,0.51,6.18,0.55,-0.32,-2.28,0.35,0.13,0.15,6370,2019-04-03 15:48:21:896
0.36,0.51,6.18,0.55,-0.32,-2.28,0.35,0.13,0.15,6375,2019-04-03 15:48:21:901
-0.01,3.99,-1.03,-0.41,3.46,-8.81,-0.26,-0.09,0.18,6380,2019-04-03 15:48:21:906
-0.01,3.99,-1.03,-0.41,3.46,-8.81,-0.26,-0.09,0.18,6385,2019-04-03 15:48:21:911
-0.01,3.99,-1.03,-0.41,3.46,-8.81,-0.26,-0.09,0.18,6390,2019-04-03 15:48:21:916
-0.01,3.99,-1.03,-0.41,3.46,-8.81,-0.26,-0.09,0.18,6399,2019-04-03 15:48:21:925
-0.01,3.99,-1.03,-0.41,3.46,-8.81,-0.26,-0.09,0.18,6400,2019-04-03 15:48:21:926
-10.34,-3.96,0.04,-10.6,-4.29,-6.97,-0.07,-0.33,0.23,6405,2019-04-03 15:48:21:931
-10.34,-3.96,0.04,-10.6,-4.29,-6.97,-0.07,-0.33,0.23,6410,2019-04-03 15:48:21:936
-10.34,-3.96,0.04,-10.6,-4.29,-6.97,-0.07,-0.33,0.23,6416,2019-04-03 15:48:21:942
-10.34,-3.96,0.04,-10.6,-4.29,-6.97,-0.07,-0.33,0.23,6420,2019-04-03 15:48:21:946
-10.34,-3.96,0.04,-10.6,-4.29,-6.97,-0.07,-0.33,0.23,6425,2019-04-03 15:48:21:951
5.91,6.65,7.95,-10.6,-4.29,-6.97,0.34,-0.55,0.13,6430,2019-04-03 15:48:21:956
5.91,6.65,7.95,4.97,5.5,1.09,0.34,-0.55,0.13,6435,2019-04-03 15:48:21:961
5.91,6.65,7.95,4.97,5.5,1.09,0.34,-0.55,0.13,6440,2019-04-03 15:48:21:966
-8.64,-2.38,11.72,4.97,5.5,1.09,0.22,-0.85,0.27,6447,2019-04-03 15:48:21:973
-8.64,-2.38,11.72,4.97,5.5,1.09,0.22,-0.85,0.27,6463,2019-04-03 15:48:21:989
-8.64,-2.38,11.72,4.97,5.5,1.09,0.22,-0.85,0.27,6464,2019-04-03 15:48:21:990
-8.64,-2.38,11.72,4.97,5.5,1.09,0.22,-0.85,0.27,6464,2019-04-03 15:48:21:990
-8.64,-2.38,11.72,4.97,5.5,1.09,0.22,-0.85,0.27,6465,2019-04-03 15:48:21:991
-5.54,-0.94,8.19,-6.05,-1.67,0.93,-0.08,0.59,0.42,6470,2019-04-03 15:48:21:996
-5.54,-0.94,8.19,-6.05,-1.67,0.93,-0.08,0.59,0.42,6477,2019-04-03 15:48:22:003
-5.54,-0.94,8.19,-6.05,-1.67,0.93,-0.08,0.59,0.42,6480,2019-04-03 15:48:22:006
-9.44,-0.72,3.01,8.94,-1.48,10.36,-0.04,-0.49,0.19,6485,2019-04-03 15:48:22:011
-9.44,-0.72,3.01,8.94,-1.48,10.36,-0.04,-0.49,0.19,6491,2019-04-03 15:48:22:017
-9.44,-0.36,24.86,5.86,-0.72,16.1,0.16,-0.71,0.13,6499,2019-04-03 15:48:22:025
7.04,-0.36,24.86,5.86,-0.72,16.1,0.16,-0.71,0.13,6504,2019-04-03 15:48:22:030
7.04,-0.36,24.86,5.86,-0.72,16.1,0.16,-0.71,0.13,6505,2019-04-03 15:48:22:031
7.04,-0.36,24.86,5.86,-0.72,16.1,0.16,-0.71,0.13,6510,2019-04-03 15:48:22:036
7.04,-0.36,24.86,5.86,-0.72,16.1,0.16,-0.71,0.13,6515,2019-04-03 15:48:22:041
8.83,3.89,16.3,8.55,3.74,7.41,0.05,1.16,0.56,6520,2019-04-03 15:48:22:046
8.83,3.89,16.3,8.55,3.74,7.41,0.05,1.16,0.56,6525,2019-04-03 15:48:22:051
8.83,3.89,16.3,8.55,3.74,7.41,0.05,1.16,0.56,6530,2019-04-03 15:48:22:056
8.83,3.89,16.3,8.55,3.74,7.41,0.05,1.16,0.56,6535,2019-04-03 15:48:22:061
-16.54,-3.76,2.22,8.55,3.74,7.41,-0.33,-0.05,0.21,6540,2019-04-03 15:48:22:066
-16.54,-3.76,2.22,-15.98,-3.52,-6.96,-0.33,-0.05,0.21,6545,2019-04-03 15:48:22:071
-16.54,-3.76,2.22,-15.98,-3.52,-6.96,-0.33,-0.05,0.21,6550,2019-04-03 15:48:22:076
-16.54,-3.76,2.22,-15.98,-3.52,-6.96,-0.33,-0.05,0.21,6555,2019-04-03 15:48:22:081
-16.54,-3.76,2.22,-15.98,-3.52,-2.22,0.23,-0.92,-0.1,6560,2019-04-03 15:48:22:086
-0.68,-2.72,7.37,-0.45,-2.14,-2.22,0.23,-0.92,-0.1,6564,2019-04-03 15:48:22:090
-0.68,-2.72,7.37,-0.45,-2.14,-2.22,0.23,-0.92,-0.1,6569,2019-04-03 15:48:22:095
-0.68,-2.72,7.37,-0.45,-2.14,-2.22,0.23,-0.92,-0.1,6575,2019-04-03 15:48:22:101
-0.68,-2.72,7.37,-0.45,-2.14,-2.22,0.23,-0.92,-0.1,6580,2019-04-03 15:48:22:106
-0.68,-2.72,7.37,-0.45,-2.14,-2.22,0.23,-0.92,-0.1,6585,2019-04-03 15:48:22:111
2.29,-0.25,12.11,3.01,0.52,2.06,-0.04,0.21,-0.06,6597,2019-04-03 15:48:22:123
2.29,-0.25,12.11,3.01,0.52,2.06,-0.04,0.21,-0.06,6598,2019-04-03 15:48:22:124
2.29,-0.25,12.11,3.01,0.52,2.06,-0.04,0.21,-0.06,6600,2019-04-03 15:48:22:126
8.9,8.48,4.68,1.39,1.93,1.5,-0.2,0.26,-0.21,6605,2019-04-03 15:48:22:131
8.9,8.48,4.68,1.39,1.93,1.5,-0.2,0.26,-0.21,6613,2019-04-03 15:48:22:139
8.9,8.48,4.68,1.39,1.93,1.5,-0.2,0.26,-0.21,6623,2019-04-03 15:48:22:149
8.9,8.48,4.68,1.39,1.93,1.5,-0.2,0.26,-0.21,6624,2019-04-03 15:48:22:150
8.9,8.48,4.68,1.39,1.93,1.5,-0.2,0.26,-0.21,6625,2019-04-03 15:48:22:151
8.9,8.48,4.68,1.39,1.93,1.5,-0.2,0.26,-0.21,6632,2019-04-03 15:48:22:158
-1.73,7.01,3.45,-0.64,7.12,-6.94,0.53,-0.3,-0.29,6634,2019-04-03 15:48:22:160
2.0,0.42,11.78,2.57,0.66,1.35,-0.53,-0.31,-0.06,6656,2019-04-03 15:48:22:182
2.0,0.42,11.78,2.57,0.66,1.35,-0.53,-0.31,-0.06,6658,2019-04-03 15:48:22:184
2.0,0.42,11.78,2.57,0.66,1.35,-0.53,-0.31,-0.06,6659,2019-04-03 15:48:22:185
2.0,0.42,11.78,2.57,0.66,1.35,-0.53,-0.31,-0.06,6659,2019-04-03 15:48:22:185
2.0,0.42,11.78,2.57,0.66,1.35,-0.53,-0.31,-0.06,6660,2019-04-03 15:48:22:186
2.0,0.42,11.78,2.57,0.66,1.35,-0.53,-0.31,-0.06,6665,2019-04-03 15:48:22:191
6.39,-4.39,13.51,6.1,-4.47,3.29,0.42,0.24,0.07,6672,2019-04-03 15:48:22:198
0.68,4.73,6.37,0.41,4.49,-3.85,-0.04,0.23,0.19,6693,2019-04-03 15:48:22:219
0.68,4.73,6.37,0.41,4.49,-3.85,-0.04,0.23,0.19,6694,2019-04-03 15:48:22:220
0.68,4.73,6.37,0.41,4.49,-3.85,-0.04,0.23,0.19,6694,2019-04-03 15:48:22:220
0.68,4.73,6.37,0.41,4.49,-3.85,-0.04,0.23,0.19,6695,2019-04-03 15:48:22:221
0.68,4.73,6.37,0.41,4.49,-3.85,-0.04,0.23,0.19,6695,2019-04-03 15:48:22:221
0.68,4.73,6.37,0.41,4.49,-3.85,-0.04,0.23,0.19,6701,2019-04-03 15:48:22:227
0.68,4.73,6.37,0.41,4.49,-3.85,-0.04,0.23,0.19,6707,2019-04-03 15:48:22:233
1.5,-3.62,9.52,1.82,-3.75,0.48,-0.19,-0.18,0.21,6711,2019-04-03 15:48:22:237
1.5,-3.62,9.52,1.82,-3.75,0.48,-0.19,-0.18,0.21,6715,2019-04-03 15:48:22:241
1.5,-3.62,9.52,1.82,-3.75,0.48,-0.19,-0.18,0.21,6719,2019-04-03 15:48:22:245
1.5,-3.62,9.52,1.82,-3.75,0.48,-0.19,-0.18,0.21,6725,2019-04-03 15:48:22:251
1.5,-3.62,9.52,1.82,-3.75,0.48,-0.19,-0.18,0.21,6729,2019-04-03 15:48:22:255
5.03,1.1,-1.65,4.57,0.72,-9.87,0.37,0.11,0.4,6735,2019-04-03 15:48:22:261
5.03,1.1,-1.65,4.57,0.72,-9.87,0.37,0.11,0.4,6740,2019-04-03 15:48:22:266
5.03,1.1,-1.65,4.57,0.72,-9.87,0.37,0.11,0.4,6747,2019-04-03 15:48:22:273
5.03,1.1,-1.65,4.57,0.72,-9.87,0.37,0.11,0.4,6753,2019-04-03 15:48:22:279
5.03,1.1,-1.65,4.57,0.72,-9.87,0.37,0.11,0.4,6755,2019-04-03 15:48:22:281
0.62,-0.4,19.32,0.08,-1.3,10.65,-0.01,0.03,0.49,6760,2019-04-03 15:48:22:286
0.62,-0.4,19.32,0.08,-1.3,10.65,-0.01,0.03,0.49,6765,2019-04-03 15:48:22:291
0.62,-0.4,19.32,0.08,-1.3,10.65,-0.01,0.03,0.49,6772,2019-04-03 15:48:22:298
0.62,-0.4,19.32,0.08,-1.3,10.65,-0.01,0.03,0.49,6775,2019-04-03 15:48:22:301
0.62,-0.4,19.32,0.08,-1.3,10.65,-0.01,0.03,0.49,6780,2019-04-03 15:48:22:306
-0.17,1.03,13.95,-1.0,-0.19,4.74,0.04,0.16,0.53,6785,2019-04-03 15:48:22:311
-0.17,1.03,13.95,-1.0,-0.19,4.74,0.04,0.16,0.53,6790,2019-04-03 15:48:22:316
-0.17,1.03,13.95,-1.0,-0.19,4.74,0.04,0.16,0.53,6794,2019-04-03 15:48:22:320
-1.99,-0.33,9.13,-3.0,-1.54,0.05,-0.07,0.09,0.43,6800,2019-04-03 15:48:22:326
-1.99,-0.33,9.13,-3.0,-1.54,0.05,-0.07,0.09,0.43,6805,2019-04-03 15:48:22:331
-1.99,-0.33,9.13,-3.0,-1.54,0.05,-0.07,0.09,0.43,6811,2019-04-03 15:48:22:337
-1.99,-0.33,9.13,-3.0,-1.54,0.05,-0.07,0.09,0.43,6815,2019-04-03 15:48:22:341
-1.99,-0.33,9.13,-3.0,-1.54,0.05,-0.07,0.09,0.43,6820,2019-04-03 15:48:22:346
-1.99,-0.33,9.13,-3.0,-1.54,0.05,-0.07,0.09,0.43,6826,2019-04-03 15:48:22:352
-1.76,-2.15,8.22,-2.2,-2.34,-1.28,-0.07,0.09,0.29,6832,2019-04-03 15:48:22:358
-1.76,-2.15,8.22,-2.2,-2.34,-1.28,-0.07,0.09,0.29,6836,2019-04-03 15:48:22:362
-1.76,-2.15,8.22,-2.2,-2.34,-1.28,-0.07,0.09,0.29,6840,2019-04-03 15:48:22:366
-1.76,-2.15,8.22,-2.2,-2.34,-1.28,-0.07,0.09,0.29,6847,2019-04-03 15:48:22:373
-1.76,-2.15,8.22,-2.2,-2.34,-1.28,-0.07,0.09,0.29,6850,2019-04-03 15:48:22:376
0.19,-0.28,13.71,0.25,-0.22,4.12,-0.02,-0.01,0.05,6854,2019-04-03 15:48:22:380
0.19,-0.28,13.71,0.25,-0.22,4.12,-0.02,-0.01,0.05,6859,2019-04-03 15:48:22:385
0.19,-0.28,13.71,0.25,-0.22,4.12,-0.02,-0.01,0.05,6865,2019-04-03 15:48:22:391
0.19,-0.28,13.71,0.25,-0.22,4.12,-0.02,-0.01,0.05,6870,2019-04-03 15:48:22:396
0.19,-0.28,13.71,0.25,-0.22,4.12,-0.02,-0.01,0.05,6875,2019-04-03 15:48:22:401
0.19,-0.28,13.71,0.25,-0.22,4.12,-0.02,-0.01,0.05,6880,2019-04-03 15:48:22:406
-3.24,1.56,6.88,-2.48,1.41,-3.03,-0.18,0.33,-0.36,6885,2019-04-03 15:48:22:411
-3.24,1.56,6.88,-2.48,1.41,-3.03,-0.18,0.33,-0.36,6890,2019-04-03 15:48:22:416
-3.24,1.56,6.88,-2.48,1.41,-3.03,-0.18,0.33,-0.36,6896,2019-04-03 15:48:22:422
5.03,1.36,12.68,5.67,0.87,2.6,0.05,-0.25,-0.66,6900,2019-04-03 15:48:22:426
5.03,1.36,12.68,5.67,0.87,2.6,0.05,-0.25,-0.66,6905,2019-04-03 15:48:22:431
5.03,1.36,12.68,5.67,0.87,2.6,0.05,-0.25,-0.66,6910,2019-04-03 15:48:22:436
5.03,1.36,12.68,5.67,0.87,2.6,0.05,-0.25,-0.66,6915,2019-04-03 15:48:22:441
0.93,5.02,14.81,5.67,0.87,2.6,0.13,0.23,-0.53,6920,2019-04-03 15:48:22:446
0.93,5.02,14.81,1.99,4.54,3.55,0.13,0.23,-0.53,6926,2019-04-03 15:48:22:452
0.93,5.02,14.81,1.99,4.54,3.55,0.13,0.23,-0.53,6931,2019-04-03 15:48:22:457
0.93,5.02,14.81,1.99,4.54,3.55,0.13,0.23,-0.53,6936,2019-04-03 15:48:22:462
0.93,5.02,14.81,1.99,4.54,3.55,0.13,0.23,-0.53,6940,2019-04-03 15:48:22:466
0.93,5.02,14.81,1.99,4.54,3.55,0.13,0.23,-0.53,6945,2019-04-03 15:48:22:471
0.93,5.02,14.81,1.99,4.54,3.55,0.13,0.23,-0.53,6951,2019-04-03 15:48:22:477
3.0,2.63,12.05,3.64,1.76,0.77,-0.35,-0.15,-0.56,6956,2019-04-03 15:48:22:482
3.0,2.63,12.05,3.64,1.76,0.77,-0.35,-0.15,-0.56,6961,2019-04-03 15:48:22:487
3.0,2.63,12.05,3.64,1.76,0.77,-0.35,-0.15,-0.56,6965,2019-04-03 15:48:22:491
3.0,2.63,12.05,3.64,1.76,0.77,-0.35,-0.15,-0.56,6970,2019-04-03 15:48:22:496
1.81,-0.45,20.37,2.56,-1.59,9.57,0.0,0.25,-0.39,6979,2019-04-03 15:48:22:505
1.81,-0.45,20.37,2.56,-1.59,9.57,0.0,0.25,-0.39,6982,2019-04-03 15:48:22:508
1.81,-0.45,20.37,2.56,-1.59,9.57,0.0,0.25,-0.39,6985,2019-04-03 15:48:22:511
1.81,-0.45,20.37,2.56,-1.59,9.57,0.0,0.25,-0.39,6990,2019-04-03 15:48:22:516
1.81,-0.45,20.37,2.56,-1.59,9.57,0.0,0.25,-0.39,6996,2019-04-03 15:48:22:522
2.49,-0.51,20.81,2.76,-2.02,9.31,-0.27,-0.69,-0.22,7000,2019-04-03 15:48:22:526
2.49,-0.51,20.81,2.76,-2.02,9.31,-0.27,-0.69,-0.22,7005,2019-04-03 15:48:22:531
2.49,-0.51,20.81,2.76,-2.02,9.31,-0.27,-0.69,-0.22,7010,2019-04-03 15:48:22:536
2.49,-0.51,20.81,2.76,-2.02,9.31,-0.27,-0.69,-0.22,7015,2019-04-03 15:48:22:541
2.49,-0.51,20.81,2.76,-2.02,9.31,-0.27,-0.69,-0.22,7020,2019-04-03 15:48:22:546
2.49,-0.51,20.81,2.76,-2.02,9.31,-0.27,-0.69,-0.22,7025,2019-04-03 15:48:22:551
2.49,-0.51,20.81,2.76,-2.02,9.31,-0.27,-0.69,-0.22,7030,2019-04-03 15:48:22:556
3.08,3.15,6.97,3.09,1.06,-4.78,0.14,0.22,0.11,7038,2019-04-03 15:48:22:564
3.08,3.15,6.97,3.09,1.06,-4.78,0.14,0.22,0.11,7039,2019-04-03 15:48:22:565
3.08,3.15,6.97,3.09,1.06,-4.78,0.14,0.22,0.11,7046,2019-04-03 15:48:22:572
3.08,3.15,6.97,3.09,1.06,-4.78,0.14,0.22,0.11,7051,2019-04-03 15:48:22:577
1.62,2.75,13.31,1.54,0.18,1.63,-0.02,0.04,0.2,7058,2019-04-03 15:48:22:584
1.62,2.75,13.31,1.54,0.18,1.63,-0.02,0.04,0.2,7060,2019-04-03 15:48:22:586
1.62,2.75,13.31,1.54,0.18,1.63,-0.02,0.04,0.2,7065,2019-04-03 15:48:22:591
1.62,2.75,13.31,1.54,0.18,1.63,-0.02,0.04,0.2,7073,2019-04-03 15:48:22:599
1.62,2.75,13.31,1.54,0.18,1.63,-0.02,0.04,0.2,7074,2019-04-03 15:48:22:600
-12.13,5.84,-0.97,-12.02,3.7,-12.63,-0.26,-0.13,0.35,7085,2019-04-03 15:48:22:611
-12.13,5.84,-0.97,-12.02,3.7,-12.63,-0.26,-0.13,0.35,7086,2019-04-03 15:48:22:612
1.42,-4.66,15.13,0.45,-7.1,2.86,0.14,-0.99,0.17,7090,2019-04-03 15:48:22:616
1.42,-4.66,15.13,0.45,-7.1,2.86,0.14,-0.99,0.17,7097,2019-04-03 15:48:22:623
1.42,-4.66,15.13,0.45,-7.1,2.86,0.14,-0.99,0.17,7100,2019-04-03 15:48:22:626
1.42,-4.66,15.13,0.45,-7.1,2.86,0.14,-0.99,0.17,7105,2019-04-03 15:48:22:631
1.42,-4.66,15.13,0.45,-7.1,2.86,0.14,-0.99,0.17,7110,2019-04-03 15:48:22:636
15.88,3.88,19.38,15.31,1.55,7.33,0.13,0.65,0.48,7115,2019-04-03 15:48:22:641
15.88,3.88,19.38,15.31,1.55,7.33,0.13,0.65,0.48,7120,2019-04-03 15:48:22:646
15.88,3.88,19.38,15.31,1.55,7.33,0.13,0.65,0.48,7125,2019-04-03 15:48:22:651
-0.82,-2.71,17.4,15.31,1.55,7.33,0.13,0.65,0.48,7130,2019-04-03 15:48:22:656
-0.82,-2.71,17.4,15.31,1.55,7.33,0.13,0.65,0.48,7136,2019-04-03 15:48:22:662
-0.82,-2.71,17.4,-1.31,-4.49,5.32,-0.03,0.66,0.43,7140,2019-04-03 15:48:22:666
-0.82,-2.71,17.4,-1.31,-4.49,5.32,-0.03,0.66,0.43,7146,2019-04-03 15:48:22:672
-8.97,3.7,6.46,-8.77,1.7,-5.25,0.38,-0.07,0.3,7149,2019-04-03 15:48:22:675
-8.97,3.7,6.46,-8.77,1.7,-5.25,0.38,-0.07,0.3,7156,2019-04-03 15:48:22:682
-8.97,3.7,6.46,-8.77,1.7,-5.25,0.38,-0.07,0.3,7161,2019-04-03 15:48:22:687
-8.97,3.7,6.46,-8.77,1.7,-5.25,0.38,-0.07,0.3,7165,2019-04-03 15:48:22:691
-8.97,3.7,6.46,-8.77,1.7,-5.25,0.38,-0.07,0.3,7170,2019-04-03 15:48:22:696
-2.72,-2.08,11.52,-2.85,-3.3,-0.79,-0.27,-0.59,0.18,7175,2019-04-03 15:48:22:701
-2.72,-2.08,11.52,-2.85,-3.3,-0.79,-0.27,-0.59,0.18,7181,2019-04-03 15:48:22:707
-2.72,-2.08,11.52,-2.85,-3.3,-0.79,-0.27,-0.59,0.18,7185,2019-04-03 15:48:22:711
-2.29,6.78,21.39,-2.06,4.98,9.03,0.39,0.25,0.18,7196,2019-04-03 15:48:22:722
-2.29,6.78,21.39,-2.06,4.98,9.03,0.39,0.25,0.18,7197,2019-04-03 15:48:22:723
-4.1,-0.55,6.23,-3.62,-2.02,-5.22,-0.11,-0.33,-0.05,7210,2019-04-03 15:48:22:736
-4.1,-0.55,6.23,-3.62,-2.02,-5.22,-0.11,-0.33,-0.05,7210,2019-04-03 15:48:22:736
-4.1,-0.55,6.23,-3.62,-2.02,-5.22,-0.11,-0.33,-0.05,7211,2019-04-03 15:48:22:737
-4.1,-0.55,6.23,-3.62,-2.02,-5.22,-0.11,-0.33,-0.05,7216,2019-04-03 15:48:22:742
-4.1,-0.55,6.23,-3.62,-2.02,-5.22,-0.11,-0.33,-0.05,7220,2019-04-03 15:48:22:746
-4.1,-0.55,6.23,-3.62,-2.02,-5.22,-0.11,-0.33,-0.05,7225,2019-04-03 15:48:22:751
11.12,-7.86,17.39,11.43,-8.73,5.98,0.38,0.03,-0.02,7230,2019-04-03 15:48:22:756
11.12,-7.86,17.39,11.43,-8.73,5.98,0.38,0.03,-0.02,7235,2019-04-03 15:48:22:761
11.12,-7.86,17.39,11.43,-8.73,5.98,0.38,0.03,-0.02,7240,2019-04-03 15:48:22:766
-3.93,1.94,3.13,6.2,-4.37,1.42,-0.11,0.5,0.1,7246,2019-04-03 15:48:22:772
-3.93,1.94,3.13,6.2,-4.37,1.42,-0.11,0.5,0.1,7250,2019-04-03 15:48:22:776
-3.93,1.94,3.13,6.2,-4.37,1.42,-0.11,0.5,0.1,7254,2019-04-03 15:48:22:780
-0.79,-8.82,13.82,-0.92,-8.46,2.3,-0.22,-0.36,-0.11,7261,2019-04-03 15:48:22:787
-0.79,-8.82,13.82,-0.92,-8.46,2.3,-0.22,-0.36,-0.11,7266,2019-04-03 15:48:22:792
-0.79,-8.82,13.82,-0.92,-8.46,2.3,-0.22,-0.36,-0.11,7271,2019-04-03 15:48:22:797
-0.79,-8.82,13.82,-0.92,-8.46,2.3,-0.22,-0.36,-0.11,7278,2019-04-03 15:48:22:804
-0.79,-8.82,13.82,-0.92,-8.46,2.3,-0.22,-0.36,-0.11,7280,2019-04-03 15:48:22:806
9.45,-0.6,13.92,9.87,-0.08,3.08,0.27,0.28,-0.03,7286,2019-04-03 15:48:22:812
9.45,-0.6,13.92,9.87,-0.08,3.08,0.27,0.28,-0.03,7290,2019-04-03 15:48:22:816
9.45,-0.6,13.92,9.87,-0.08,3.08,0.27,0.28,-0.03,7294,2019-04-03 15:48:22:820
1.91,17.95,-1.9,2.71,17.44,-12.54,-0.05,0.51,0.02,7300,2019-04-03 15:48:22:826
1.91,17.95,-1.9,2.71,17.44,-12.54,-0.05,0.51,0.02,7305,2019-04-03 15:48:22:831
1.91,17.95,-1.9,2.71,17.44,-12.54,-0.05,0.51,0.02,7310,2019-04-03 15:48:22:836
1.91,17.95,-1.9,2.71,17.44,-12.54,-0.05,0.51,0.02,7315,2019-04-03 15:48:22:841
1.91,17.95,-1.9,2.71,17.44,-12.54,-0.05,0.51,0.02,7321,2019-04-03 15:48:22:847
1.91,17.95,-1.9,2.71,17.44,-12.54,-0.05,0.51,0.02,7325,2019-04-03 15:48:22:851
-6.6,2.07,12.49,-6.46,0.9,1.65,-0.12,-0.75,0.09,7331,2019-04-03 15:48:22:857
-6.6,2.07,12.49,-6.46,0.9,1.65,-0.12,-0.75,0.09,7335,2019-04-03 15:48:22:861
-6.6,2.07,12.49,-6.46,0.9,1.65,-0.12,-0.75,0.09,7340,2019-04-03 15:48:22:866
-6.6,2.07,12.49,-6.46,0.9,1.65,-0.12,-0.75,0.09,7347,2019-04-03 15:48:22:873
3.31,3.01,17.53,2.79,1.64,6.18,0.45,-0.27,0.33,7350,2019-04-03 15:48:22:876
3.31,3.01,17.53,2.79,1.64,6.18,0.45,-0.27,0.33,7355,2019-04-03 15:48:22:881
3.31,3.01,17.53,2.79,1.64,6.18,0.45,-0.27,0.33,7362,2019-04-03 15:48:22:888
3.31,3.01,17.53,2.79,1.64,6.18,0.45,-0.27,0.33,7365,2019-04-03 15:48:22:891
3.31,3.01,17.53,2.79,1.64,6.18,0.45,-0.27,0.33,7370,2019-04-03 15:48:22:896
0.86,5.52,15.86,0.99,3.39,4.67,0.01,0.45,0.3,7375,2019-04-03 15:48:22:901
0.86,5.52,15.86,0.99,3.39,4.67,0.01,0.45,0.3,7383,2019-04-03 15:48:22:909
0.86,5.52,15.86,0.99,3.39,4.67,0.01,0.45,0.3,7384,2019-04-03 15:48:22:910
-7.7,-3.37,5.19,-7.82,-4.37,-5.73,-0.15,-0.13,0.13,7391,2019-04-03 15:48:22:917
-7.7,-3.37,5.19,-7.82,-4.37,-5.73,-0.15,-0.13,0.13,7396,2019-04-03 15:48:22:922
-7.7,-3.37,5.19,-7.82,-4.37,-5.73,-0.15,-0.13,0.13,7400,2019-04-03 15:48:22:926
-7.7,-3.37,5.19,-7.82,-4.37,-5.73,-0.15,-0.13,0.13,7406,2019-04-03 15:48:22:932
-2.26,2.69,16.93,-2.47,1.32,5.12,0.49,-0.68,-0.03,7410,2019-04-03 15:48:22:936
-2.26,2.69,16.93,-2.47,1.32,5.12,0.49,-0.68,-0.03,7415,2019-04-03 15:48:22:941
-2.26,2.69,16.93,-2.47,1.32,5.12,0.49,-0.68,-0.03,7421,2019-04-03 15:48:22:947
-2.26,2.69,16.93,-2.47,1.32,5.12,0.49,-0.68,-0.03,7425,2019-04-03 15:48:22:951
7.73,1.89,14.39,7.79,0.2,2.25,0.06,0.19,0.11,7430,2019-04-03 15:48:22:956
7.73,1.89,14.39,7.79,0.2,2.25,0.06,0.19,0.11,7435,2019-04-03 15:48:22:961
2.57,-0.88,10.64,7.79,0.2,2.25,-0.26,0.3,0.03,7440,2019-04-03 15:48:22:966
2.57,-0.88,10.64,7.79,0.2,2.25,-0.26,0.3,0.03,7445,2019-04-03 15:48:22:971
2.57,-0.88,10.64,7.79,0.2,2.25,-0.26,0.3,0.03,7450,2019-04-03 15:48:22:976
2.57,-0.88,10.64,7.79,0.2,2.25,-0.26,0.3,0.03,7456,2019-04-03 15:48:22:982
2.57,-0.88,10.64,7.79,0.2,2.25,-0.26,0.3,0.03,7460,2019-04-03 15:48:22:986
-8.26,0.64,5.61,-7.71,-1.71,-6.52,0.13,-0.05,-0.07,7467,2019-04-03 15:48:22:993
-8.26,0.64,5.61,-7.71,-1.71,-6.52,0.13,-0.05,-0.07,7470,2019-04-03 15:48:22:996
-8.26,0.64,5.61,-7.71,-1.71,-6.52,0.13,-0.05,-0.07,7475,2019-04-03 15:48:23:001
-1.18,4.58,5.79,-0.56,2.26,-6.46,-0.23,-0.42,-0.16,7480,2019-04-03 15:48:23:006
-1.18,4.58,5.79,-0.56,2.26,-6.46,-0.23,-0.42,-0.16,7487,2019-04-03 15:48:23:013
-1.18,4.58,5.79,-0.56,2.26,-6.46,-0.23,-0.42,-0.16,7490,2019-04-03 15:48:23:016
-1.18,4.58,5.79,-0.56,2.26,-6.46,-0.23,-0.42,-0.16,7496,2019-04-03 15:48:23:022
-1.18,4.58,5.79,-0.56,2.26,-6.46,-0.23,-0.42,-0.16,7500,2019-04-03 15:48:23:026
-1.18,4.58,5.79,-0.56,2.26,-6.46,-0.23,-0.42,-0.16,7504,2019-04-03 15:48:23:030
5.89,3.03,14.19,6.02,1.6,1.69,-0.2,0.08,-0.16,7510,2019-04-03 15:48:23:036
5.89,3.03,14.19,6.02,1.6,1.69,-0.2,0.08,-0.16,7514,2019-04-03 15:48:23:040
5.89,3.03,14.19,6.02,1.6,1.69,-0.2,0.08,-0.16,7520,2019-04-03 15:48:23:046
2.75,-0.64,15.4,6.02,1.6,1.69,-0.2,0.08,-0.16,7525,2019-04-03 15:48:23:051
2.75,-0.64,15.4,3.01,-1.73,3.14,0.1,0.04,-0.31,7531,2019-04-03 15:48:23:057
2.75,-0.64,15.4,3.01,-1.73,3.14,0.1,0.04,-0.31,7536,2019-04-03 15:48:23:062
2.75,-0.64,15.4,3.01,-1.73,3.14,0.1,0.04,-0.31,7540,2019-04-03 15:48:23:066
2.75,-0.64,15.4,3.01,-1.73,3.14,0.1,0.04,-0.31,7546,2019-04-03 15:48:23:072
2.75,-0.64,15.4,3.01,-1.73,3.14,0.1,0.04,-0.31,7550,2019-04-03 15:48:23:076
2.75,-0.64,15.4,3.01,-1.73,3.14,0.1,0.04,-0.31,7555,2019-04-03 15:48:23:081
2.75,-0.64,15.4,3.01,-1.73,3.14,0.1,0.04,-0.31,7560,2019-04-03 15:48:23:086
2.75,-0.64,15.4,3.01,-1.73,3.14,0.1,0.04,-0.31,7566,2019-04-03 15:48:23:092
-3.2,-2.84,13.07,3.01,-1.73,3.14,0.02,0.03,-0.4,7570,2019-04-03 15:48:23:096
-3.2,-2.84,13.07,-2.54,-3.17,0.59,0.02,0.03,-0.4,7575,2019-04-03 15:48:23:101
-3.2,-2.84,13.07,-2.54,-3.17,0.59,0.17,-0.24,-0.45,7580,2019-04-03 15:48:23:106
-3.2,-2.84,13.07,-2.54,-3.17,0.59,0.17,-0.24,-0.45,7585,2019-04-03 15:48:23:111
1.23,-2.21,13.41,2.13,1.85,-4.2,0.17,-0.24,-0.45,7592,2019-04-03 15:48:23:118
1.23,-2.21,13.41,2.13,1.85,-4.2,0.17,-0.24,-0.45,7595,2019-04-03 15:48:23:121
1.23,-2.21,13.41,3.0,6.46,-2.78,-0.27,-0.08,-0.29,7600,2019-04-03 15:48:23:126
-2.97,9.49,18.26,3.0,6.46,-2.78,-0.27,-0.08,-0.29,7605,2019-04-03 15:48:23:131
-2.97,9.49,18.26,3.0,6.46,-2.78,-0.27,-0.08,-0.29,7610,2019-04-03 15:48:23:136
-2.97,9.49,18.26,13.16,0.41,-6.45,0.07,0.13,-0.14,7615,2019-04-03 15:48:23:141
-2.97,9.49,18.26,13.16,0.41,-6.45,0.07,0.13,-0.14,7620,2019-04-03 15:48:23:146
-2.97,9.49,18.26,13.16,0.41,-6.45,0.07,0.13,-0.14,7625,2019-04-03 15:48:23:151
-2.97,9.49,18.26,13.16,0.41,-6.45,0.07,0.13,-0.14,7630,2019-04-03 15:48:23:156
-13.27,9.38,8.57,-12.8,7.31,-4.23,0.19,-0.34,-0.12,7635,2019-04-03 15:48:23:161
-13.27,9.38,8.57,-12.8,7.31,-4.23,0.19,-0.34,-0.12,7640,2019-04-03 15:48:23:166
-13.27,9.38,8.57,-12.8,7.31,-4.23,0.19,-0.34,-0.12,7645,2019-04-03 15:48:23:171
-13.27,9.38,8.57,-12.8,7.31,-4.23,0.19,-0.34,-0.12,7650,2019-04-03 15:48:23:176
16.8,1.06,20.72,16.03,-1.17,7.25,-0.38,-0.44,-0.14,7655,2019-04-03 15:48:23:181
16.8,1.06,20.72,16.03,-1.17,7.25,-0.38,-0.44,-0.14,7660,2019-04-03 15:48:23:186
16.8,1.06,20.72,16.03,-1.17,7.25,-0.38,-0.44,-0.14,7666,2019-04-03 15:48:23:192
-1.67,-1.32,10.35,-1.61,-3.9,-2.67,0.41,1.12,0.19,7671,2019-04-03 15:48:23:197
-1.67,-1.32,10.35,-1.61,-3.9,-2.67,0.41,1.12,0.19,7676,2019-04-03 15:48:23:202
-1.67,-1.32,10.35,-1.61,-3.9,-2.67,0.41,1.12,0.19,7680,2019-04-03 15:48:23:206
-1.67,-1.32,10.35,-1.61,-3.9,-2.67,0.41,1.12,0.19,7685,2019-04-03 15:48:23:211
-1.67,-1.32,10.35,-1.61,-3.9,-2.67,0.41,1.12,0.19,7690,2019-04-03 15:48:23:216
-1.67,-1.32,10.35,-1.61,-3.9,-2.67,0.41,1.12,0.19,7695,2019-04-03 15:48:23:221
-5.43,2.73,2.49,-5.23,0.66,-10.43,-0.23,-0.26,0.0,7701,2019-04-03 15:48:23:227
-5.43,2.73,2.49,-5.23,0.66,-10.43,-0.23,-0.26,0.0,7705,2019-04-03 15:48:23:231
-5.43,2.73,2.49,-5.23,0.66,-10.43,-0.23,-0.26,0.0,7711,2019-04-03 15:48:23:237
6.4,-1.17,14.37,5.91,-2.69,0.69,-0.12,-0.3,0.02,7715,2019-04-03 15:48:23:241
6.4,-1.17,14.37,5.91,-2.69,0.69,-0.12,-0.3,0.02,7720,2019-04-03 15:48:23:246
6.4,-1.17,14.37,5.91,-2.69,0.69,-0.12,-0.3,0.02,7726,2019-04-03 15:48:23:252
6.4,-1.17,14.37,5.91,-2.69,0.69,-0.12,-0.3,0.02,7730,2019-04-03 15:48:23:256
6.4,-1.17,14.37,5.91,-2.69,0.69,-0.12,-0.3,0.02,7735,2019-04-03 15:48:23:261
-11.31,8.03,6.31,5.91,-2.69,0.69,0.18,-0.36,-0.01,7740,2019-04-03 15:48:23:266
-11.31,8.03,6.31,-11.02,6.47,-6.81,0.18,-0.36,-0.01,7746,2019-04-03 15:48:23:272
-11.31,8.03,6.31,-11.02,6.47,-6.81,0.18,-0.36,-0.01,7750,2019-04-03 15:48:23:276
10.08,-0.9,26.25,9.4,-2.47,12.59,-0.26,-0.54,-0.1,7757,2019-04-03 15:48:23:283
10.08,-0.9,26.25,9.4,-2.47,12.59,-0.26,-0.54,-0.1,7759,2019-04-03 15:48:23:285
10.08,-0.9,26.25,9.4,-2.47,12.59,-0.26,-0.54,-0.1,7767,2019-04-03 15:48:23:293
10.08,-0.9,26.25,9.4,-2.47,12.59,-0.26,-0.54,-0.1,7770,2019-04-03 15:48:23:296
6.08,1.96,12.5,5.98,-0.05,-1.07,0.37,0.97,0.16,7775,2019-04-03 15:48:23:301
6.08,1.96,12.5,5.98,-0.05,-1.07,0.37,0.97,0.16,7780,2019-04-03 15:48:23:306
6.08,1.96,12.5,5.98,-0.05,-1.07,0.37,0.97,0.16,7786,2019-04-03 15:48:23:312
6.08,1.96,12.5,5.98,-0.05,-1.07,0.37,0.97,0.16,7790,2019-04-03 15:48:23:316
-6.79,0.53,4.1,-6.68,-0.95,-9.24,-0.21,-0.09,0.0,7795,2019-04-03 15:48:23:321
-6.79,0.53,4.1,-6.68,-0.95,-9.24,-0.21,-0.09,0.0,7799,2019-04-03 15:48:23:325
-6.79,0.53,4.1,-6.68,-0.95,-9.24,-0.21,-0.09,0.0,7805,2019-04-03 15:48:23:331
-6.79,0.53,4.1,-6.68,-0.95,-9.24,-0.21,-0.09,0.0,7810,2019-04-03 15:48:23:336
-6.79,0.53,4.1,-6.68,-0.95,-9.24,-0.21,-0.09,0.0,7814,2019-04-03 15:48:23:340
2.64,1.23,4.97,2.42,-0.04,-6.4,0.12,-0.32,-0.06,7820,2019-04-03 15:48:23:346
2.64,1.23,4.97,2.42,-0.04,-6.4,0.12,-0.32,-0.06,7824,2019-04-03 15:48:23:350
2.64,1.23,4.97,2.42,-0.04,-6.4,0.12,-0.32,-0.06,7830,2019-04-03 15:48:23:356
-5.0,-1.94,3.33,-5.06,-2.4,-7.47,0.19,0.09,0.03,7835,2019-04-03 15:48:23:361
-5.0,-1.94,3.33,-5.06,-2.4,-7.47,0.19,0.09,0.03,7840,2019-04-03 15:48:23:366
-5.0,-1.94,3.33,-5.06,-2.4,-7.47,0.19,0.09,0.03,7845,2019-04-03 15:48:23:371
-5.0,-1.94,3.33,-5.06,-2.4,-7.47,0.19,0.09,0.03,7851,2019-04-03 15:48:23:377
-1.24,-2.75,10.08,-0.69,-2.53,-0.66,-0.32,-0.38,-0.1,7856,2019-04-03 15:48:23:382
-1.24,-2.75,10.08,-0.69,-2.53,-0.66,-0.32,-0.38,-0.1,7861,2019-04-03 15:48:23:387
-1.24,-2.75,10.08,-0.69,-2.53,-0.66,-0.32,-0.38,-0.1,7865,2019-04-03 15:48:23:391
7.18,1.35,16.72,7.07,1.55,5.37,0.26,0.19,-0.13,7874,2019-04-03 15:48:23:400
7.18,1.35,16.72,7.07,1.55,5.37,0.26,0.19,-0.13,7878,2019-04-03 15:48:23:404
7.18,1.35,16.72,7.07,1.55,5.37,0.26,0.19,-0.13,7880,2019-04-03 15:48:23:406
7.18,1.35,16.72,7.07,1.55,5.37,0.26,0.19,-0.13,7886,2019-04-03 15:48:23:412
7.18,1.35,16.72,7.07,1.55,5.37,0.26,0.19,-0.13,7889,2019-04-03 15:48:23:415
3.0,3.28,11.67,3.13,3.2,0.04,-0.15,0.5,-0.1,7895,2019-04-03 15:48:23:421
