ACCELEROMETER X (m/s²),ACCELEROMETER Y (m/s²),ACCELEROMETER Z (m/s²),LINEAR ACCELERATION X (m/s²),LINEAR ACCELERATION Y (m/s²),LINEAR ACCELERATION Z (m/s²),GYROSCOPE X (rad/s),GYROSCOPE Y (rad/s),GYROSCOPE Z (rad/s),Time since start in ms ,YYYY-MO-DD HH-MI-SS_SSS
0.1,0.35,10.02,0.09,-0.11,0.11,0.0,0.0,0.01,3,2019-04-03 15:53:51:808
0.1,0.35,10.02,0.09,-0.11,0.11,0.0,0.0,0.01,8,2019-04-03 15:53:51:813
0.14,0.46,9.9,0.12,0.0,0.01,0.0,0.0,0.0,15,2019-04-03 15:53:51:820
0.14,0.46,9.9,0.12,0.0,0.01,0.0,0.0,0.0,19,2019-04-03 15:53:51:824
0.14,0.46,9.9,0.12,0.0,0.01,0.0,0.0,0.0,24,2019-04-03 15:53:51:829
0.14,0.46,9.9,0.12,0.0,0.01,0.0,0.0,0.0,29,2019-04-03 15:53:51:834
0.03,0.35,9.9,0.02,-0.1,0.01,0.0,0.0,0.0,34,2019-04-03 15:53:51:839
0.03,0.35,9.9,0.02,-0.1,0.01,0.0,0.0,0.0,39,2019-04-03 15:53:51:844
0.03,0.35,9.9,0.02,-0.1,0.01,0.0,0.0,0.0,44,2019-04-03 15:53:51:849
0.03,0.35,9.9,0.02,-0.1,0.01,0.0,0.0,0.0,48,2019-04-03 15:53:51:853
0.03,0.35,9.9,0.02,-0.1,0.01,0.0,0.0,0.0,54,2019-04-03 15:53:51:859
0.03,0.35,9.9,0.02,-0.1,0.01,0.0,0.0,0.0,59,2019-04-03 15:53:51:864
0.1,0.36,9.94,0.1,-0.08,0.04,0.01,0.0,0.0,64,2019-04-03 15:53:51:869
0.1,0.36,9.94,0.1,-0.08,0.04,0.01,0.0,0.0,69,2019-04-03 15:53:51:874
0.1,0.36,9.94,0.1,-0.08,0.04,0.0,0.0,0.0,74,2019-04-03 15:53:51:879
0.1,0.36,9.94,0.1,-0.08,0.04,0.0,0.0,0.0,79,2019-04-03 15:53:51:884
0.1,0.36,9.94,0.1,-0.08,0.04,0.0,0.0,0.0,84,2019-04-03 15:53:51:889
0.1,0.36,9.94,0.1,-0.08,0.04,0.0,0.0,0.0,88,2019-04-03 15:53:51:893
0.17,0.36,10.09,0.15,-0.07,0.19,0.0,0.01,0.01,94,2019-04-03 15:53:51:899
0.17,0.36,10.09,0.15,-0.07,0.19,0.0,0.01,0.01,99,2019-04-03 15:53:51:904
0.17,0.36,10.09,0.15,-0.07,0.19,0.0,0.01,0.01,104,2019-04-03 15:53:51:909
0.17,0.36,10.09,0.15,-0.07,0.19,0.0,0.01,0.01,109,2019-04-03 15:53:51:914
0.17,0.36,10.09,0.15,-0.07,0.19,0.0,0.01,0.01,114,2019-04-03 15:53:51:919
0.08,0.52,9.85,0.06,0.08,-0.03,0.01,0.0,0.01,119,2019-04-03 15:53:51:924
0.08,0.52,9.85,0.06,0.08,-0.03,0.01,0.0,0.01,124,2019-04-03 15:53:51:929
0.08,0.52,9.85,0.06,0.08,-0.03,0.01,0.0,0.01,129,2019-04-03 15:53:51:934
0.11,0.59,9.79,0.07,0.15,-0.09,0.0,0.0,0.01,134,2019-04-03 15:53:51:939
0.11,0.59,9.79,0.07,0.15,-0.09,0.0,0.0,0.01,138,2019-04-03 15:53:51:943
0.11,0.59,9.79,0.07,0.15,-0.09,0.0,0.0,0.01,145,2019-04-03 15:53:51:950
0.11,0.59,9.79,0.07,0.15,-0.09,0.0,0.0,0.01,149,2019-04-03 15:53:51:954
-0.17,0.53,9.69,-0.19,0.1,-0.2,0.0,0.0,0.01,154,2019-04-03 15:53:51:959
-0.17,0.53,9.69,-0.19,0.1,-0.2,0.0,0.0,0.01,158,2019-04-03 15:53:51:963
-0.17,0.53,9.69,-0.19,0.1,-0.2,0.0,0.0,0.01,164,2019-04-03 15:53:51:969
-0.17,0.53,9.69,-0.19,0.1,-0.2,0.0,0.0,0.01,169,2019-04-03 15:53:51:974
0.06,0.44,9.99,0.03,0.01,0.08,0.0,-0.01,0.0,174,2019-04-03 15:53:51:979
0.06,0.44,9.99,0.03,0.01,0.08,0.0,-0.01,0.0,179,2019-04-03 15:53:51:984
0.06,0.44,9.99,0.03,0.01,0.08,0.0,-0.01,0.0,184,2019-04-03 15:53:51:989
0.06,0.44,9.99,0.03,0.01,0.08,0.0,-0.01,0.0,189,2019-04-03 15:53:51:994
-0.14,0.41,10.15,-0.14,-0.02,0.24,0.01,0.02,0.01,195,2019-04-03 15:53:52:000
-0.14,0.41,10.15,-0.14,-0.02,0.24,0.01,0.02,0.01,199,2019-04-03 15:53:52:004
-0.14,0.41,10.15,-0.14,-0.02,0.24,0.01,0.02,0.01,204,2019-04-03 15:53:52:009
-0.14,0.41,10.15,-0.14,-0.02,0.24,0.01,0.02,0.01,209,2019-04-03 15:53:52:014
-0.51,0.59,9.75,-0.47,0.14,-0.16,0.0,0.01,0.01,214,2019-04-03 15:53:52:019
-0.51,0.59,9.75,-0.47,0.14,-0.16,0.0,0.01,0.01,219,2019-04-03 15:53:52:024
-0.51,0.59,9.75,-0.47,0.14,-0.16,0.0,0.01,0.01,224,2019-04-03 15:53:52:029
-0.51,0.59,9.75,-0.47,0.14,-0.16,0.0,0.01,0.01,229,2019-04-03 15:53:52:034
-0.47,0.3,9.97,-0.4,-0.15,0.04,-0.01,0.0,0.0,234,2019-04-03 15:53:52:039
-0.47,0.3,9.97,-0.4,-0.15,0.04,-0.01,0.0,0.0,239,2019-04-03 15:53:52:044
-0.47,0.3,9.97,-0.4,-0.15,0.04,-0.01,0.0,0.0,244,2019-04-03 15:53:52:049
-0.47,0.3,9.97,-0.4,-0.15,0.04,-0.01,0.0,0.0,249,2019-04-03 15:53:52:054
-0.47,0.3,9.97,-0.4,-0.15,0.04,-0.01,0.0,0.0,254,2019-04-03 15:53:52:059
-0.47,0.3,9.97,-0.4,-0.15,0.04,-0.01,0.0,0.0,259,2019-04-03 15:53:52:064
-0.34,0.43,9.98,-0.23,-0.04,0.05,0.01,0.0,-0.01,264,2019-04-03 15:53:52:069
-0.34,0.43,9.98,-0.23,-0.04,0.05,0.01,0.0,-0.01,269,2019-04-03 15:53:52:074
0.18,0.54,9.73,0.3,0.06,-0.18,-0.01,0.0,-0.02,274,2019-04-03 15:53:52:079
0.18,0.54,9.73,0.3,0.06,-0.18,-0.01,0.0,-0.02,279,2019-04-03 15:53:52:084
0.18,0.54,9.73,0.3,0.06,-0.18,-0.01,0.0,-0.02,285,2019-04-03 15:53:52:090
0.18,0.54,9.73,0.3,0.06,-0.18,-0.01,0.0,-0.02,288,2019-04-03 15:53:52:093
0.18,0.54,9.73,0.3,0.06,-0.18,-0.01,0.0,-0.02,294,2019-04-03 15:53:52:099
0.18,0.54,9.73,0.3,0.06,-0.18,-0.01,0.0,-0.02,299,2019-04-03 15:53:52:104
0.2,0.17,9.96,0.32,-0.29,0.05,0.0,-0.01,-0.02,304,2019-04-03 15:53:52:109
0.2,0.17,9.96,0.32,-0.29,0.05,0.0,-0.01,-0.02,309,2019-04-03 15:53:52:114
0.51,0.3,9.86,0.32,-0.29,0.05,0.01,0.0,-0.01,314,2019-04-03 15:53:52:119
0.51,0.3,9.86,0.32,-0.29,0.05,0.01,0.0,-0.01,318,2019-04-03 15:53:52:123
0.51,0.3,9.86,0.32,-0.29,0.05,0.01,0.0,-0.01,324,2019-04-03 15:53:52:129
0.51,0.3,9.86,0.32,-0.29,0.05,0.01,0.0,-0.01,328,2019-04-03 15:53:52:133
-0.18,0.51,9.39,-0.1,0.05,-0.49,0.0,0.0,0.0,335,2019-04-03 15:53:52:140
-0.18,0.51,9.39,-0.1,0.05,-0.49,0.0,0.0,0.0,339,2019-04-03 15:53:52:144
-0.18,0.51,9.39,-0.1,0.05,-0.49,0.0,0.0,0.0,346,2019-04-03 15:53:52:151
-0.18,0.51,9.39,-0.1,0.05,-0.49,0.0,0.0,0.0,349,2019-04-03 15:53:52:154
-0.18,0.51,9.39,-0.1,0.05,-0.49,0.0,0.0,0.0,354,2019-04-03 15:53:52:159
-0.18,0.51,9.39,-0.1,0.05,-0.49,0.0,0.0,0.0,359,2019-04-03 15:53:52:164
-0.02,-0.12,9.65,0.03,-0.53,-0.17,-0.01,0.0,0.0,363,2019-04-03 15:53:52:168
-0.02,-0.12,9.65,0.03,-0.53,-0.17,-0.01,0.0,0.0,369,2019-04-03 15:53:52:174
-0.02,-0.12,9.65,0.03,-0.53,-0.17,0.02,0.0,0.01,374,2019-04-03 15:53:52:179
-0.02,-0.12,9.65,0.03,-0.53,-0.17,0.02,0.0,0.01,379,2019-04-03 15:53:52:184
-0.02,-0.12,9.65,0.03,-0.53,-0.17,0.02,0.0,0.01,384,2019-04-03 15:53:52:189
-0.02,-0.12,9.65,0.03,-0.53,-0.17,0.02,0.0,0.01,389,2019-04-03 15:53:52:194
-0.3,0.34,10.04,-0.21,-0.06,0.24,-0.01,0.0,0.0,394,2019-04-03 15:53:52:199
-0.3,0.34,10.04,-0.21,-0.06,0.24,-0.01,0.0,0.0,399,2019-04-03 15:53:52:204
-0.3,0.34,10.04,-0.21,-0.06,0.24,-0.01,0.0,0.0,404,2019-04-03 15:53:52:209
-0.3,0.34,10.04,-0.21,-0.06,0.24,-0.01,0.0,0.0,409,2019-04-03 15:53:52:214
0.24,0.35,9.87,0.27,-0.06,0.08,0.01,-0.02,-0.02,415,2019-04-03 15:53:52:220
0.24,0.35,9.87,0.27,-0.06,0.08,0.01,-0.02,-0.02,419,2019-04-03 15:53:52:224
0.24,0.35,9.87,0.27,-0.06,0.08,0.01,-0.02,-0.02,424,2019-04-03 15:53:52:229
0.24,0.35,9.87,0.27,-0.06,0.08,0.01,-0.02,-0.02,429,2019-04-03 15:53:52:234
0.22,0.68,9.89,0.19,0.25,0.1,0.0,-0.01,-0.02,434,2019-04-03 15:53:52:239
0.22,0.68,9.89,0.19,0.25,0.1,0.0,-0.01,-0.02,439,2019-04-03 15:53:52:244
0.22,0.68,9.89,0.19,0.25,0.1,0.0,-0.01,-0.02,445,2019-04-03 15:53:52:250
0.22,0.68,9.89,0.19,0.25,0.1,0.0,-0.01,-0.02,449,2019-04-03 15:53:52:254
0.29,0.58,9.91,0.2,0.15,0.12,0.0,0.0,-0.02,454,2019-04-03 15:53:52:259
0.29,0.58,9.91,0.2,0.15,0.12,0.0,0.0,-0.02,459,2019-04-03 15:53:52:264
0.29,0.58,9.91,0.2,0.15,0.12,0.0,0.0,-0.02,464,2019-04-03 15:53:52:269
0.29,0.58,9.91,0.2,0.15,0.12,0.0,0.0,-0.02,469,2019-04-03 15:53:52:274
0.29,0.58,9.91,0.2,0.15,0.12,0.0,0.0,-0.02,474,2019-04-03 15:53:52:279
0.29,0.58,9.91,0.2,0.15,0.12,0.0,0.0,-0.02,479,2019-04-03 15:53:52:284
0.07,0.62,9.97,-0.03,0.17,0.19,0.0,0.01,0.0,484,2019-04-03 15:53:52:289
0.07,0.62,9.97,-0.03,0.17,0.19,0.0,0.01,0.0,489,2019-04-03 15:53:52:294
0.07,0.62,9.97,-0.03,0.17,0.19,0.0,0.01,0.0,494,2019-04-03 15:53:52:299
0.07,0.65,10.09,-0.03,0.17,0.19,0.0,0.02,0.01,499,2019-04-03 15:53:52:304
0.07,0.65,10.09,-0.01,0.17,0.3,0.0,0.02,0.01,510,2019-04-03 15:53:52:315
0.07,0.65,10.09,-0.01,0.17,0.3,0.0,0.02,0.01,511,2019-04-03 15:53:52:316
0.07,0.65,10.09,-0.01,0.17,0.3,0.0,0.02,0.01,514,2019-04-03 15:53:52:319
0.07,0.65,10.09,-0.01,0.17,0.3,0.0,0.02,0.01,519,2019-04-03 15:53:52:324
-0.3,0.4,9.92,-0.33,-0.06,0.11,0.0,0.01,0.0,525,2019-04-03 15:53:52:330
-0.3,0.4,9.92,-0.33,-0.06,0.11,0.0,0.01,0.0,529,2019-04-03 15:53:52:334
-0.03,0.39,9.94,-0.01,-0.08,0.06,0.0,0.0,0.0,534,2019-04-03 15:53:52:339
-0.03,0.39,9.94,-0.01,-0.08,0.06,0.0,0.0,0.0,539,2019-04-03 15:53:52:344
-0.03,0.39,9.94,-0.01,-0.08,0.06,0.0,0.0,0.0,544,2019-04-03 15:53:52:349
-0.03,0.39,9.94,-0.01,-0.08,0.06,0.0,0.0,0.0,549,2019-04-03 15:53:52:354
-0.03,0.39,9.94,-0.01,-0.08,0.06,0.0,0.0,0.0,553,2019-04-03 15:53:52:358
-0.03,0.39,9.94,-0.01,-0.08,0.06,0.0,0.0,0.0,559,2019-04-03 15:53:52:364
-0.01,0.44,9.89,0.01,-0.05,0.0,0.0,0.0,-0.01,564,2019-04-03 15:53:52:369
-0.01,0.44,9.89,0.01,-0.05,0.0,0.0,0.0,-0.01,569,2019-04-03 15:53:52:374
-0.01,0.44,9.89,0.01,-0.05,0.0,0.0,0.0,-0.01,574,2019-04-03 15:53:52:379
-0.01,0.44,9.89,0.01,-0.05,0.0,0.0,0.0,-0.01,579,2019-04-03 15:53:52:384
0.04,0.48,9.99,0.05,-0.01,0.07,0.0,0.0,-0.01,584,2019-04-03 15:53:52:389
0.04,0.48,9.99,0.05,-0.01,0.07,0.0,0.0,-0.01,589,2019-04-03 15:53:52:394
0.04,0.48,9.99,0.05,-0.01,0.07,0.0,0.0,0.0,594,2019-04-03 15:53:52:399
0.04,0.48,9.99,0.05,-0.01,0.07,0.0,0.0,0.0,599,2019-04-03 15:53:52:404
0.04,0.48,9.99,0.05,-0.01,0.07,0.0,0.0,0.0,604,2019-04-03 15:53:52:409
0.04,0.48,9.99,0.05,-0.01,0.07,0.0,0.0,0.0,609,2019-04-03 15:53:52:414
-0.01,0.47,9.89,-0.02,-0.03,-0.03,0.0,0.0,0.0,614,2019-04-03 15:53:52:419
-0.01,0.47,9.89,-0.02,-0.03,-0.03,0.0,0.0,0.0,619,2019-04-03 15:53:52:424
-0.01,0.47,9.89,-0.02,-0.03,-0.03,0.0,0.0,0.0,624,2019-04-03 15:53:52:429
-0.01,0.47,9.89,-0.02,-0.03,-0.03,0.0,0.0,0.0,629,2019-04-03 15:53:52:434
-0.22,0.46,9.7,-0.19,-0.03,-0.21,0.0,0.0,0.0,634,2019-04-03 15:53:52:439
-0.22,0.46,9.7,-0.19,-0.03,-0.21,0.0,0.0,0.0,638,2019-04-03 15:53:52:443
-0.22,0.46,9.7,-0.19,-0.03,-0.21,0.0,0.0,0.0,644,2019-04-03 15:53:52:449
-0.22,0.46,9.7,-0.19,-0.03,-0.21,0.0,0.0,0.0,649,2019-04-03 15:53:52:454
-0.22,0.46,9.7,-0.19,-0.03,-0.21,0.0,0.0,0.0,655,2019-04-03 15:53:52:460
-0.22,0.46,9.7,-0.19,-0.03,-0.21,0.0,0.0,0.0,659,2019-04-03 15:53:52:464
0.01,0.39,9.8,0.06,-0.1,-0.1,0.0,0.0,0.0,664,2019-04-03 15:53:52:469
0.01,0.39,9.8,0.06,-0.1,-0.1,0.0,0.0,0.0,669,2019-04-03 15:53:52:474
0.01,0.39,9.8,0.06,-0.1,-0.1,0.0,0.0,0.0,674,2019-04-03 15:53:52:479
0.01,0.39,9.8,0.06,-0.1,-0.1,0.0,0.0,0.0,679,2019-04-03 15:53:52:484
-0.08,0.3,9.65,-0.01,-0.14,-0.23,0.0,0.0,0.0,684,2019-04-03 15:53:52:489
-0.08,0.3,9.65,-0.01,-0.14,-0.23,0.0,0.0,0.0,690,2019-04-03 15:53:52:495
-0.08,0.3,9.65,-0.01,-0.14,-0.23,0.0,0.0,0.0,696,2019-04-03 15:53:52:501
-0.08,0.3,9.65,-0.12,0.11,0.0,0.0,0.0,0.0,699,2019-04-03 15:53:52:504
-0.08,0.3,9.65,-0.12,0.11,0.0,0.0,0.0,0.0,704,2019-04-03 15:53:52:509
-0.08,0.3,9.65,-0.12,0.11,0.0,0.0,0.0,0.0,709,2019-04-03 15:53:52:514
0.12,0.48,10.05,0.16,0.04,0.15,0.0,0.0,0.0,714,2019-04-03 15:53:52:519
0.12,0.48,10.05,0.16,0.04,0.15,0.0,0.0,0.0,719,2019-04-03 15:53:52:524
0.12,0.48,10.05,0.16,0.04,0.15,0.0,0.0,0.0,724,2019-04-03 15:53:52:529
0.12,0.48,10.05,0.16,0.04,0.15,0.0,0.0,0.0,729,2019-04-03 15:53:52:534
0.12,0.48,10.05,0.16,0.04,0.15,0.0,0.0,0.0,735,2019-04-03 15:53:52:540
0.12,0.48,10.05,0.16,0.04,0.15,0.0,0.0,0.0,739,2019-04-03 15:53:52:544
-0.07,0.49,9.78,-0.06,0.03,-0.1,0.0,0.0,0.0,744,2019-04-03 15:53:52:549
-0.07,0.49,9.78,-0.06,0.03,-0.1,0.0,-0.01,0.0,749,2019-04-03 15:53:52:554
-0.02,0.42,9.84,-0.06,0.03,-0.1,0.0,-0.01,0.0,755,2019-04-03 15:53:52:560
-0.02,0.42,9.84,-0.06,0.03,-0.1,0.0,-0.01,0.0,759,2019-04-03 15:53:52:564
-0.02,0.42,9.84,-0.06,0.03,-0.1,0.0,-0.01,0.0,764,2019-04-03 15:53:52:569
-0.02,0.42,9.84,-0.06,0.03,-0.1,0.0,-0.01,0.0,769,2019-04-03 15:53:52:574
-0.02,0.42,9.84,-0.06,0.03,-0.1,0.0,-0.01,0.0,775,2019-04-03 15:53:52:580
-0.02,0.42,9.84,-0.06,0.03,-0.1,0.0,-0.01,0.0,779,2019-04-03 15:53:52:584
0.12,0.45,9.98,0.11,0.0,0.09,0.0,0.0,0.01,784,2019-04-03 15:53:52:589
0.12,0.45,9.98,0.11,0.0,0.09,0.0,0.0,0.01,789,2019-04-03 15:53:52:594
0.12,0.45,9.98,0.11,0.0,0.09,0.0,0.0,0.01,796,2019-04-03 15:53:52:601
0.12,0.45,9.98,0.11,0.0,0.09,0.0,0.0,0.01,799,2019-04-03 15:53:52:604
0.12,0.45,9.98,0.11,0.0,0.09,0.0,0.0,0.01,804,2019-04-03 15:53:52:609
0.12,0.45,9.98,0.11,0.0,0.09,0.0,0.0,0.01,809,2019-04-03 15:53:52:614
-0.04,0.38,9.96,-0.05,-0.06,0.07,0.0,-0.01,0.01,814,2019-04-03 15:53:52:619
-0.04,0.38,9.96,-0.05,-0.06,0.07,0.0,-0.01,0.01,819,2019-04-03 15:53:52:624
0.02,0.52,9.94,0.0,0.07,0.05,0.0,0.0,0.01,824,2019-04-03 15:53:52:629
0.02,0.52,9.94,0.0,0.07,0.05,0.0,0.0,0.01,830,2019-04-03 15:53:52:635
0.02,0.52,9.94,0.0,0.07,0.05,0.0,0.0,0.01,834,2019-04-03 15:53:52:639
0.02,0.52,9.94,0.0,0.07,0.05,0.0,0.0,0.01,839,2019-04-03 15:53:52:644
-0.03,0.42,9.97,-0.04,-0.02,0.07,0.0,0.0,0.01,844,2019-04-03 15:53:52:649
-0.03,0.42,9.97,-0.04,-0.02,0.07,0.0,0.0,0.01,849,2019-04-03 15:53:52:654
-0.03,0.42,9.97,-0.04,-0.02,0.07,0.0,0.0,0.01,853,2019-04-03 15:53:52:658
-0.03,0.42,9.97,-0.04,-0.02,0.07,0.0,0.0,0.01,858,2019-04-03 15:53:52:663
0.18,0.41,9.93,0.15,-0.05,0.0,0.0,0.0,0.01,864,2019-04-03 15:53:52:669
0.18,0.41,9.93,0.15,-0.05,0.0,0.0,0.0,0.01,869,2019-04-03 15:53:52:674
0.18,0.41,9.93,0.15,-0.05,0.0,0.0,0.0,0.01,874,2019-04-03 15:53:52:679
0.18,0.41,9.93,0.15,-0.05,0.0,0.0,0.0,0.01,879,2019-04-03 15:53:52:684
-0.01,0.5,9.73,-0.03,0.04,-0.17,0.0,0.0,0.02,884,2019-04-03 15:53:52:689
-0.01,0.5,9.73,-0.03,0.04,-0.17,0.0,0.0,0.02,889,2019-04-03 15:53:52:694
-0.01,0.5,9.73,-0.03,0.04,-0.17,0.0,0.0,0.02,893,2019-04-03 15:53:52:698
-0.01,0.5,9.73,-0.03,0.04,-0.17,0.0,0.0,0.02,899,2019-04-03 15:53:52:704
0.13,0.37,10.0,0.1,-0.06,0.08,0.0,0.0,0.02,904,2019-04-03 15:53:52:709
0.13,0.37,10.0,0.1,-0.06,0.08,0.0,0.0,0.02,909,2019-04-03 15:53:52:714
0.13,0.37,10.0,0.1,-0.06,0.08,0.0,0.0,0.02,914,2019-04-03 15:53:52:719
0.13,0.37,10.0,0.1,-0.06,0.08,0.0,0.0,0.02,919,2019-04-03 15:53:52:724
-0.19,0.52,9.94,-0.19,0.07,0.02,0.01,0.01,0.03,924,2019-04-03 15:53:52:729
-0.19,0.52,9.94,-0.19,0.07,0.02,0.01,0.01,0.03,929,2019-04-03 15:53:52:734
-0.19,0.52,9.94,-0.19,0.07,0.02,0.01,0.01,0.03,935,2019-04-03 15:53:52:740
-0.19,0.52,9.94,-0.19,0.07,0.02,0.01,0.01,0.03,939,2019-04-03 15:53:52:744
-0.19,0.52,9.94,-0.19,0.07,0.02,0.01,0.01,0.03,944,2019-04-03 15:53:52:749
-0.19,0.52,9.94,-0.19,0.07,0.02,0.01,0.01,0.03,950,2019-04-03 15:53:52:755
-0.28,0.55,9.81,-0.25,0.1,-0.11,0.0,0.0,0.02,955,2019-04-03 15:53:52:760
-0.28,0.55,9.81,-0.25,0.1,-0.11,0.0,0.0,0.02,959,2019-04-03 15:53:52:764
-0.28,0.55,9.81,-0.25,0.1,-0.11,0.0,0.0,0.02,964,2019-04-03 15:53:52:769
-0.28,0.55,9.81,-0.25,0.1,-0.11,0.0,0.0,0.02,969,2019-04-03 15:53:52:774
-0.08,0.48,9.89,-0.02,0.03,-0.01,0.0,0.0,0.02,974,2019-04-03 15:53:52:779
-0.08,0.48,9.89,-0.02,0.03,-0.01,0.0,0.0,0.02,979,2019-04-03 15:53:52:784
0.0,0.48,10.07,-0.22,0.01,0.07,0.0,-0.01,0.01,984,2019-04-03 15:53:52:789
0.0,0.48,10.07,-0.22,0.01,0.07,0.0,-0.01,0.01,988,2019-04-03 15:53:52:793
0.0,0.48,10.07,-0.22,0.01,0.07,0.0,-0.01,0.01,994,2019-04-03 15:53:52:799
0.0,0.48,10.07,-0.22,0.01,0.07,0.0,-0.01,0.01,999,2019-04-03 15:53:52:804
0.0,0.48,10.07,-0.22,0.01,0.07,0.0,-0.01,0.01,1004,2019-04-03 15:53:52:809
0.0,0.48,9.83,-0.22,0.01,0.07,0.0,-0.01,0.01,1009,2019-04-03 15:53:52:814
-0.08,0.45,9.83,-0.01,-0.01,-0.08,0.0,-0.02,0.01,1013,2019-04-03 15:53:52:818
-0.08,0.45,9.83,-0.01,-0.01,-0.08,0.0,-0.02,0.01,1019,2019-04-03 15:53:52:824
-0.08,0.45,9.83,-0.01,-0.01,-0.08,0.0,-0.02,0.01,1025,2019-04-03 15:53:52:830
-0.08,0.45,9.83,-0.01,-0.01,-0.08,0.0,-0.02,0.01,1030,2019-04-03 15:53:52:835
0.08,0.17,9.92,0.14,-0.26,0.0,0.0,-0.02,0.01,1034,2019-04-03 15:53:52:839
0.08,0.17,9.92,0.14,-0.26,0.0,0.0,-0.02,0.01,1039,2019-04-03 15:53:52:844
0.08,0.17,9.92,0.14,-0.26,0.0,0.0,-0.02,0.0,1045,2019-04-03 15:53:52:850
0.08,0.17,9.92,0.14,-0.26,0.0,0.0,-0.02,0.0,1049,2019-04-03 15:53:52:854
0.08,0.17,9.92,0.14,-0.26,0.0,0.0,-0.02,0.0,1054,2019-04-03 15:53:52:859
0.08,0.17,9.92,0.14,-0.26,0.0,0.0,-0.02,0.0,1059,2019-04-03 15:53:52:864
0.04,-0.12,9.95,0.08,-0.47,0.02,0.0,0.0,0.0,1065,2019-04-03 15:53:52:870
0.04,-0.12,9.95,0.08,-0.47,0.02,0.0,0.0,0.0,1069,2019-04-03 15:53:52:874
0.04,-0.12,9.95,0.08,-0.47,0.02,0.0,0.0,0.0,1074,2019-04-03 15:53:52:879
0.04,-0.12,9.95,0.08,-0.47,0.02,0.0,0.0,0.0,1078,2019-04-03 15:53:52:883
0.19,0.3,9.95,0.21,-0.03,0.0,0.01,0.0,0.0,1085,2019-04-03 15:53:52:890
0.19,0.3,9.95,0.21,-0.03,0.0,0.01,0.0,0.0,1089,2019-04-03 15:53:52:894
0.19,0.3,9.95,0.21,-0.03,0.0,0.01,0.0,0.0,1095,2019-04-03 15:53:52:900
0.19,0.3,9.95,0.21,-0.03,0.0,0.01,0.0,0.0,1099,2019-04-03 15:53:52:904
0.19,0.3,9.95,0.21,-0.03,0.0,0.01,0.0,0.0,1104,2019-04-03 15:53:52:909
0.19,0.3,9.95,0.21,-0.03,0.0,0.01,0.0,0.0,1109,2019-04-03 15:53:52:914
0.12,0.65,9.94,0.13,0.29,0.0,0.0,0.01,0.0,1114,2019-04-03 15:53:52:919
0.12,0.65,9.94,0.13,0.29,0.0,0.0,0.01,0.0,1119,2019-04-03 15:53:52:924
0.12,0.65,9.94,0.13,0.29,0.0,0.0,0.01,0.0,1124,2019-04-03 15:53:52:929
0.12,0.65,9.94,0.13,0.29,0.0,0.0,0.01,0.0,1129,2019-04-03 15:53:52:934
-0.05,0.94,9.8,-0.04,0.55,-0.12,0.0,0.01,0.01,1134,2019-04-03 15:53:52:939
-0.05,0.94,9.8,-0.04,0.55,-0.12,0.0,0.0,0.02,1141,2019-04-03 15:53:52:946
-0.05,0.94,9.8,-0.04,0.55,-0.12,0.0,0.0,0.02,1147,2019-04-03 15:53:52:952
-0.05,0.94,9.8,-0.04,0.55,-0.12,0.0,0.0,0.02,1151,2019-04-03 15:53:52:956
-0.05,0.94,9.8,-0.04,0.55,-0.12,0.0,0.0,0.02,1154,2019-04-03 15:53:52:959
-0.05,0.94,9.8,-0.04,0.55,-0.12,0.0,0.0,0.02,1159,2019-04-03 15:53:52:964
-0.08,1.3,9.96,-0.08,0.75,0.03,0.0,0.0,0.02,1165,2019-04-03 15:53:52:970
-0.08,1.3,9.96,-0.08,0.75,0.03,0.0,0.0,0.02,1169,2019-04-03 15:53:52:974
-0.08,1.3,9.96,-0.08,0.75,0.03,0.0,0.0,0.02,1174,2019-04-03 15:53:52:979
-0.08,1.3,9.96,-0.08,0.75,0.03,0.0,0.0,0.02,1179,2019-04-03 15:53:52:984
-0.18,1.14,9.83,-0.2,0.54,-0.09,-0.02,0.0,0.0,1184,2019-04-03 15:53:52:989
-0.18,1.14,9.83,-0.2,0.54,-0.09,-0.02,0.0,0.0,1189,2019-04-03 15:53:52:994
-0.18,1.14,9.83,-0.2,0.54,-0.09,-0.02,0.0,0.0,1194,2019-04-03 15:53:52:999
-0.18,1.14,9.83,-0.2,0.54,-0.09,-0.02,0.0,0.0,1199,2019-04-03 15:53:53:004
-0.26,0.97,10.0,-0.26,0.3,0.07,0.0,0.0,-0.02,1204,2019-04-03 15:53:53:009
-0.26,0.97,10.0,-0.26,0.3,0.07,0.0,0.0,-0.02,1209,2019-04-03 15:53:53:014
-0.26,0.97,10.0,-0.26,0.3,0.07,0.0,0.0,-0.02,1214,2019-04-03 15:53:53:019
-0.26,0.97,10.0,-0.26,0.3,0.07,0.0,0.0,-0.02,1219,2019-04-03 15:53:53:024
-0.26,0.97,10.0,-0.26,0.3,0.07,0.0,0.0,-0.02,1224,2019-04-03 15:53:53:029
-0.26,0.97,10.0,-0.26,0.3,0.07,0.0,0.0,-0.02,1229,2019-04-03 15:53:53:034
-0.34,0.88,9.9,-0.27,0.16,-0.03,-0.01,0.02,-0.04,1234,2019-04-03 15:53:53:039
-0.34,0.88,9.9,-0.27,0.16,-0.03,-0.01,0.02,-0.04,1239,2019-04-03 15:53:53:044
-0.34,0.88,9.9,-0.27,0.16,-0.03,-0.01,0.02,-0.04,1244,2019-04-03 15:53:53:049
-0.34,0.53,9.74,-0.27,0.16,-0.03,-0.01,0.02,-0.04,1249,2019-04-03 15:53:53:054
-0.34,0.53,9.74,-0.22,-0.22,-0.17,-0.02,0.01,-0.05,1254,2019-04-03 15:53:53:059
-0.34,0.53,9.74,-0.22,-0.22,-0.17,-0.02,0.01,-0.05,1259,2019-04-03 15:53:53:064
-0.05,0.28,9.82,0.07,-0.53,-0.05,0.0,-0.01,-0.04,1265,2019-04-03 15:53:53:070
-0.05,0.28,9.82,0.07,-0.53,-0.05,0.0,-0.01,-0.04,1269,2019-04-03 15:53:53:074
-0.05,0.28,9.82,0.07,-0.53,-0.05,0.0,-0.01,-0.04,1274,2019-04-03 15:53:53:079
-0.05,0.28,9.82,0.07,-0.53,-0.05,0.0,-0.01,-0.04,1278,2019-04-03 15:53:53:083
-0.07,0.1,10.03,0.07,-0.69,0.12,0.0,-0.02,-0.02,1284,2019-04-03 15:53:53:089
-0.07,0.1,10.03,0.07,-0.69,0.12,0.0,-0.02,-0.02,1289,2019-04-03 15:53:53:094
-0.07,0.1,10.03,0.07,-0.69,0.12,0.0,-0.02,-0.02,1296,2019-04-03 15:53:53:101
-0.07,0.1,10.03,0.07,-0.69,0.12,0.0,-0.02,-0.02,1299,2019-04-03 15:53:53:104
-0.07,0.1,10.03,0.07,-0.69,0.12,0.0,-0.02,-0.02,1304,2019-04-03 15:53:53:109
-0.07,0.1,10.03,0.07,-0.69,0.12,0.0,-0.02,-0.02,1308,2019-04-03 15:53:53:113
0.71,-0.02,8.75,0.81,-0.75,-1.06,-0.02,-0.04,0.0,1314,2019-04-03 15:53:53:119
0.71,-0.02,8.75,0.81,-0.75,-1.06,-0.02,-0.04,0.0,1319,2019-04-03 15:53:53:124
0.71,-0.02,8.75,0.81,-0.75,-1.06,0.0,-0.04,0.0,1324,2019-04-03 15:53:53:129
0.71,-0.02,8.75,0.81,-0.75,-1.06,0.0,-0.04,0.0,1329,2019-04-03 15:53:53:134
0.71,-0.02,8.75,0.81,-0.75,-1.06,0.0,-0.04,0.0,1335,2019-04-03 15:53:53:140
0.71,-0.02,8.75,0.81,-0.75,-1.06,0.0,-0.04,0.0,1338,2019-04-03 15:53:53:143
0.4,0.18,9.81,0.38,-0.27,0.06,0.0,-0.03,0.0,1345,2019-04-03 15:53:53:150
0.4,0.18,9.81,0.38,-0.27,0.06,0.0,-0.03,0.0,1349,2019-04-03 15:53:53:154
0.4,0.18,9.81,0.38,-0.27,0.06,0.0,-0.03,0.0,1353,2019-04-03 15:53:53:158
0.4,0.18,9.81,0.38,-0.27,0.06,0.0,-0.03,0.0,1359,2019-04-03 15:53:53:164
0.4,0.18,9.81,0.38,-0.27,0.06,0.0,-0.03,0.0,1365,2019-04-03 15:53:53:170
0.4,0.18,9.81,0.38,-0.27,0.06,0.0,-0.03,0.0,1370,2019-04-03 15:53:53:175
0.02,-0.08,9.98,-0.01,-0.39,0.23,-0.02,0.02,0.01,1374,2019-04-03 15:53:53:179
0.02,-0.08,9.98,-0.01,-0.39,0.23,-0.02,0.02,0.01,1379,2019-04-03 15:53:53:184
-0.68,0.02,10.03,-0.68,-0.18,0.29,0.02,0.01,-0.01,1384,2019-04-03 15:53:53:189
-0.68,0.02,10.03,-0.68,-0.18,0.29,0.02,0.01,-0.01,1389,2019-04-03 15:53:53:194
-0.68,0.02,10.03,-0.68,-0.18,0.29,0.02,0.01,-0.01,1395,2019-04-03 15:53:53:200
-0.68,0.02,10.03,-0.68,-0.18,0.29,0.02,0.01,-0.01,1398,2019-04-03 15:53:53:203
-0.19,0.41,9.76,-0.2,0.23,0.03,-0.01,0.02,-0.01,1404,2019-04-03 15:53:53:209
-0.19,0.41,9.76,-0.2,0.23,0.03,-0.01,0.02,-0.01,1409,2019-04-03 15:53:53:214
-0.19,0.41,9.76,-0.2,0.23,0.03,-0.01,0.02,-0.01,1414,2019-04-03 15:53:53:219
-0.19,0.41,9.76,-0.2,0.23,0.03,-0.01,0.02,-0.01,1419,2019-04-03 15:53:53:224
-0.19,0.41,9.76,-0.2,0.23,0.03,-0.01,0.02,-0.01,1424,2019-04-03 15:53:53:229
-0.19,0.41,9.76,-0.2,0.23,0.03,-0.01,0.02,-0.01,1428,2019-04-03 15:53:53:233
-0.79,0.26,9.97,-0.82,0.09,0.23,0.0,0.0,-0.02,1434,2019-04-03 15:53:53:239
-0.79,0.26,9.97,-0.82,0.09,0.23,0.0,0.0,-0.02,1439,2019-04-03 15:53:53:244
-0.79,0.26,9.97,-0.82,0.09,0.23,0.0,0.0,-0.02,1444,2019-04-03 15:53:53:249
0.06,0.49,9.88,-0.82,0.09,0.23,0.0,0.0,-0.02,1449,2019-04-03 15:53:53:254
0.06,0.49,9.88,-0.02,0.35,0.12,0.01,-0.03,-0.03,1456,2019-04-03 15:53:53:261
0.06,0.49,9.88,-0.02,0.35,0.12,0.01,-0.03,-0.03,1459,2019-04-03 15:53:53:264
0.13,0.07,10.09,0.04,-0.04,0.31,-0.02,0.01,-0.02,1466,2019-04-03 15:53:53:271
0.13,0.07,10.09,0.04,-0.04,0.31,-0.02,0.01,-0.02,1474,2019-04-03 15:53:53:279
0.13,0.07,10.09,0.04,-0.04,0.31,-0.02,0.01,-0.02,1475,2019-04-03 15:53:53:280
0.13,0.07,10.09,0.04,-0.04,0.31,-0.02,0.01,-0.02,1478,2019-04-03 15:53:53:283
-0.19,0.34,9.85,-0.26,0.2,0.11,0.0,0.01,-0.03,1489,2019-04-03 15:53:53:294
-0.19,0.34,9.85,-0.26,0.2,0.11,0.0,0.01,-0.03,1491,2019-04-03 15:53:53:296
-0.19,0.34,9.85,-0.26,0.2,0.11,0.0,0.01,-0.03,1495,2019-04-03 15:53:53:300
-0.19,0.34,9.85,-0.26,0.2,0.11,0.0,0.01,-0.03,1500,2019-04-03 15:53:53:305
-0.19,0.34,9.85,-0.26,0.2,0.11,0.0,0.01,-0.03,1504,2019-04-03 15:53:53:309
-0.19,0.34,9.85,-0.26,0.2,0.11,0.0,0.01,-0.03,1509,2019-04-03 15:53:53:314
-0.04,0.58,9.9,-0.07,0.38,0.07,0.0,0.0,-0.03,1516,2019-04-03 15:53:53:321
-0.04,0.58,9.9,-0.07,0.38,0.07,0.0,0.0,-0.03,1519,2019-04-03 15:53:53:324
-0.04,0.58,9.9,-0.07,0.38,0.07,0.0,0.0,-0.03,1524,2019-04-03 15:53:53:329
-0.04,0.58,9.9,-0.07,0.38,0.07,0.0,0.0,-0.03,1529,2019-04-03 15:53:53:334
0.22,0.64,9.87,0.23,0.32,-0.04,0.0,-0.01,-0.03,1537,2019-04-03 15:53:53:342
0.22,0.64,9.87,0.23,0.32,-0.04,0.0,-0.01,-0.03,1539,2019-04-03 15:53:53:344
0.22,0.64,9.87,0.23,0.32,-0.04,0.0,-0.01,-0.03,1544,2019-04-03 15:53:53:349
0.22,0.64,9.87,0.23,0.32,-0.04,0.0,-0.01,-0.03,1549,2019-04-03 15:53:53:354
0.22,0.64,9.87,0.23,0.32,-0.04,0.0,-0.01,-0.03,1554,2019-04-03 15:53:53:359
0.2,0.67,9.99,0.21,0.21,0.06,0.0,0.0,-0.01,1563,2019-04-03 15:53:53:368
0.2,0.67,9.99,0.21,0.21,0.06,0.0,0.0,-0.01,1564,2019-04-03 15:53:53:369
0.2,0.67,9.99,0.21,0.21,0.06,0.0,0.0,-0.01,1569,2019-04-03 15:53:53:374
0.2,0.67,9.99,0.21,0.21,0.06,0.0,0.0,-0.01,1574,2019-04-03 15:53:53:379
0.2,0.67,9.99,0.21,0.21,0.06,0.0,0.0,-0.01,1580,2019-04-03 15:53:53:385
0.2,0.67,9.99,0.21,0.21,0.06,0.0,0.0,-0.01,1583,2019-04-03 15:53:53:388
0.2,0.67,9.99,0.21,0.21,0.06,0.0,0.0,-0.01,1589,2019-04-03 15:53:53:394
0.19,0.62,9.91,0.17,0.16,-0.03,0.0,0.0,0.0,1594,2019-04-03 15:53:53:399
0.19,0.62,9.91,0.17,0.16,-0.03,0.0,0.0,0.0,1601,2019-04-03 15:53:53:406
0.19,0.62,9.91,0.17,0.16,-0.03,0.0,0.0,0.0,1604,2019-04-03 15:53:53:409
0.19,0.62,9.91,0.17,0.16,-0.03,0.0,0.0,0.0,1609,2019-04-03 15:53:53:414
0.0,0.52,9.94,-0.04,0.03,0.0,0.0,0.01,0.0,1614,2019-04-03 15:53:53:419
0.0,0.52,9.94,-0.04,0.03,0.0,0.0,0.01,0.0,1620,2019-04-03 15:53:53:425
0.0,0.52,9.94,-0.04,0.03,0.0,0.0,0.01,0.0,1625,2019-04-03 15:53:53:430
0.0,0.52,9.94,-0.04,0.03,0.0,0.0,0.01,0.0,1629,2019-04-03 15:53:53:434
-0.09,0.55,9.86,-0.16,0.08,-0.06,0.0,0.01,0.0,1633,2019-04-03 15:53:53:438
-0.09,0.55,9.86,-0.16,0.08,-0.06,0.0,0.01,0.0,1639,2019-04-03 15:53:53:444
-0.09,0.55,9.86,-0.16,0.08,-0.06,0.0,0.01,0.0,1645,2019-04-03 15:53:53:450
-0.09,0.55,9.86,-0.16,0.08,-0.06,0.0,0.01,0.0,1649,2019-04-03 15:53:53:454
-0.09,0.55,9.86,-0.16,0.08,-0.06,0.0,0.01,0.0,1654,2019-04-03 15:53:53:459
-0.09,0.55,9.86,-0.16,0.08,-0.06,0.0,0.01,0.0,1659,2019-04-03 15:53:53:464
-0.46,0.43,9.75,-0.48,-0.09,-0.14,0.0,0.01,-0.01,1664,2019-04-03 15:53:53:469
-0.46,0.43,9.75,-0.48,-0.09,-0.14,0.0,0.01,-0.01,1669,2019-04-03 15:53:53:474
-0.46,0.43,9.75,-0.48,-0.09,-0.14,0.0,0.01,-0.01,1678,2019-04-03 15:53:53:483
-0.46,0.43,9.75,-0.48,-0.09,-0.14,0.0,0.01,-0.01,1679,2019-04-03 15:53:53:484
-0.05,0.65,9.93,-0.11,0.09,0.0,0.01,-0.04,-0.01,1684,2019-04-03 15:53:53:489
-0.05,0.65,9.93,-0.11,0.09,0.0,0.01,-0.04,-0.01,1689,2019-04-03 15:53:53:494
-0.05,0.65,9.93,-0.11,0.09,0.0,0.01,-0.04,-0.01,1695,2019-04-03 15:53:53:500
-0.05,0.65,9.93,-0.11,0.09,0.0,0.01,-0.04,-0.01,1701,2019-04-03 15:53:53:506
0.74,0.75,10.04,0.66,0.17,0.09,0.0,-0.01,0.0,1704,2019-04-03 15:53:53:509
0.74,0.75,10.04,0.66,0.17,0.09,0.0,-0.01,0.0,1709,2019-04-03 15:53:53:514
0.74,0.75,10.04,0.66,0.17,0.09,0.0,-0.01,0.0,1714,2019-04-03 15:53:53:519
0.74,0.75,10.04,0.66,0.17,0.09,0.0,-0.01,0.0,1718,2019-04-03 15:53:53:523
0.23,0.6,10.04,0.17,0.02,0.11,-0.01,0.03,0.01,1727,2019-04-03 15:53:53:532
0.23,0.6,10.04,0.17,0.02,0.11,-0.01,0.03,0.01,1729,2019-04-03 15:53:53:534
0.23,0.6,10.04,0.17,0.02,0.11,-0.01,0.03,0.01,1734,2019-04-03 15:53:53:539
0.23,0.6,10.04,0.17,0.02,0.11,-0.01,0.03,0.01,1739,2019-04-03 15:53:53:544
-0.27,0.35,9.95,-0.3,-0.21,0.01,0.0,0.01,0.02,1743,2019-04-03 15:53:53:548
-0.27,0.35,9.95,-0.3,-0.21,0.01,0.0,0.01,0.02,1749,2019-04-03 15:53:53:554
-0.27,0.35,9.95,-0.3,-0.21,0.01,0.0,0.01,0.02,1754,2019-04-03 15:53:53:559
-0.27,0.35,9.95,-0.3,-0.21,0.01,0.0,0.01,0.02,1759,2019-04-03 15:53:53:564
-0.27,0.35,9.95,-0.3,-0.21,0.01,0.0,0.01,0.02,1764,2019-04-03 15:53:53:569
-0.27,0.35,9.95,-0.3,-0.21,0.01,0.0,0.01,0.02,1769,2019-04-03 15:53:53:574
-0.1,0.36,9.5,-0.11,-0.18,-0.41,0.0,0.0,0.01,1777,2019-04-03 15:53:53:582
-0.1,0.36,9.5,-0.11,-0.18,-0.41,0.0,0.0,0.01,1779,2019-04-03 15:53:53:584
-0.1,0.36,9.5,-0.11,-0.18,-0.41,0.0,0.0,0.01,1784,2019-04-03 15:53:53:589
-0.1,0.36,9.5,-0.11,-0.18,-0.41,0.0,0.0,0.01,1789,2019-04-03 15:53:53:594
-0.1,0.36,9.5,-0.11,-0.18,-0.41,0.0,0.0,0.01,1794,2019-04-03 15:53:53:599
-0.1,0.36,9.5,-0.11,-0.18,-0.41,0.0,0.0,0.01,1799,2019-04-03 15:53:53:604
-0.26,0.15,10.02,-0.21,-0.31,0.12,0.0,-0.01,0.01,1804,2019-04-03 15:53:53:609
-0.26,0.15,10.02,-0.21,-0.31,0.12,0.0,-0.01,0.01,1810,2019-04-03 15:53:53:615
-0.26,0.15,10.02,-0.21,-0.31,0.12,0.0,-0.01,0.01,1815,2019-04-03 15:53:53:620
-0.26,0.15,10.02,-0.21,-0.31,0.12,0.0,-0.01,0.01,1819,2019-04-03 15:53:53:624
-0.09,0.4,9.93,-0.03,-0.05,0.02,0.01,-0.01,0.0,1823,2019-04-03 15:53:53:628
-0.09,0.4,9.93,-0.03,-0.05,0.02,0.01,-0.01,0.0,1829,2019-04-03 15:53:53:634
-0.09,0.4,9.93,-0.03,-0.05,0.02,0.01,-0.01,0.0,1834,2019-04-03 15:53:53:639
-0.09,0.4,9.93,-0.03,-0.05,0.02,0.01,-0.01,0.0,1839,2019-04-03 15:53:53:644
-0.09,0.4,9.93,-0.03,-0.05,0.02,0.01,-0.01,0.0,1844,2019-04-03 15:53:53:649
-0.09,0.4,9.93,-0.03,-0.05,0.02,0.01,-0.01,0.0,1849,2019-04-03 15:53:53:654
-0.22,0.29,9.87,-0.17,-0.13,-0.04,0.0,-0.02,0.0,1856,2019-04-03 15:53:53:661
-0.22,0.29,9.87,-0.17,-0.13,-0.04,0.0,-0.02,0.0,1861,2019-04-03 15:53:53:666
-0.22,0.29,9.87,-0.17,-0.13,-0.04,0.0,-0.02,0.0,1864,2019-04-03 15:53:53:669
-0.22,0.29,9.87,-0.17,-0.13,-0.04,0.0,-0.02,0.0,1868,2019-04-03 15:53:53:673
0.05,0.12,9.95,0.07,-0.28,0.02,0.01,-0.04,0.0,1874,2019-04-03 15:53:53:679
0.05,0.12,9.95,0.07,-0.28,0.02,0.01,-0.04,0.0,1879,2019-04-03 15:53:53:684
0.05,0.12,9.95,0.07,-0.28,0.02,0.01,-0.04,0.0,1884,2019-04-03 15:53:53:689
0.05,0.12,9.95,0.07,-0.28,0.02,0.01,-0.04,0.0,1889,2019-04-03 15:53:53:694
0.23,0.52,9.84,0.25,0.14,-0.05,0.01,-0.03,0.0,1896,2019-04-03 15:53:53:701
0.23,0.52,9.84,0.25,0.14,-0.05,0.01,-0.03,0.0,1899,2019-04-03 15:53:53:704
0.23,0.52,9.84,0.25,0.14,-0.05,0.01,-0.03,0.0,1904,2019-04-03 15:53:53:709
0.23,0.52,9.84,0.25,0.14,-0.05,0.01,-0.03,0.0,1909,2019-04-03 15:53:53:714
0.14,1.33,9.97,0.17,0.9,0.08,0.02,-0.02,0.01,1914,2019-04-03 15:53:53:719
0.14,1.33,9.97,0.17,0.9,0.08,0.02,-0.02,0.01,1919,2019-04-03 15:53:53:724
0.14,1.33,9.97,0.17,0.9,0.08,0.02,-0.02,0.01,1924,2019-04-03 15:53:53:729
0.14,1.33,9.97,0.17,0.9,0.08,0.02,-0.02,0.01,1929,2019-04-03 15:53:53:734
0.51,1.41,10.39,0.51,0.9,0.46,0.01,-0.02,0.03,1935,2019-04-03 15:53:53:740
0.51,1.41,10.39,0.51,0.9,0.46,0.01,-0.02,0.03,1939,2019-04-03 15:53:53:744
0.51,1.41,10.39,0.51,0.9,0.46,0.01,-0.02,0.03,1944,2019-04-03 15:53:53:749
0.51,1.41,10.39,0.51,0.9,0.46,0.01,-0.02,0.03,1949,2019-04-03 15:53:53:754
0.04,1.03,9.68,0.02,0.46,-0.23,0.0,0.0,0.04,1954,2019-04-03 15:53:53:759
0.04,1.03,9.68,0.02,0.46,-0.23,0.0,0.0,0.04,1959,2019-04-03 15:53:53:764
0.04,1.03,9.68,0.02,0.46,-0.23,0.0,0.0,0.04,1964,2019-04-03 15:53:53:769
0.04,1.03,9.68,0.02,0.46,-0.23,0.0,0.0,0.04,1969,2019-04-03 15:53:53:774
-0.15,-0.16,9.85,-0.17,-0.71,-0.09,-0.01,-0.02,0.03,1974,2019-04-03 15:53:53:779
-0.15,-0.16,9.85,-0.17,-0.71,-0.09,-0.01,-0.02,0.03,1980,2019-04-03 15:53:53:785
-0.15,-0.16,9.85,-0.17,-0.71,-0.09,-0.01,-0.02,0.03,1984,2019-04-03 15:53:53:789
0.68,-0.33,10.01,0.6,-0.85,0.05,0.02,-0.04,0.01,1989,2019-04-03 15:53:53:794
0.68,-0.33,10.01,0.6,-0.85,0.05,0.02,-0.04,0.01,1997,2019-04-03 15:53:53:802
0.68,-0.33,10.01,0.6,-0.85,0.05,0.02,-0.04,0.01,2009,2019-04-03 15:53:53:814
0.02,0.2,9.4,-0.08,-0.27,-0.51,0.01,0.0,0.02,2012,2019-04-03 15:53:53:817
0.02,0.2,9.4,-0.08,-0.27,-0.51,0.01,0.0,0.02,2012,2019-04-03 15:53:53:817
0.02,0.2,9.4,-0.08,-0.27,-0.51,0.01,0.0,0.02,2014,2019-04-03 15:53:53:819
0.02,0.2,9.4,-0.08,-0.27,-0.51,0.01,0.0,0.02,2021,2019-04-03 15:53:53:826
0.02,0.2,9.4,-0.08,-0.27,-0.51,0.01,0.0,0.02,2024,2019-04-03 15:53:53:829
0.02,0.2,9.4,-0.08,-0.27,-0.51,0.01,0.0,0.02,2028,2019-04-03 15:53:53:833
0.31,0.24,9.79,0.15,-0.22,-0.09,0.0,-0.01,0.01,2034,2019-04-03 15:53:53:839
0.31,0.24,9.79,0.15,-0.22,-0.09,0.0,-0.01,0.01,2039,2019-04-03 15:53:53:844
0.53,0.19,10.39,0.32,-0.32,0.49,0.04,0.0,0.01,2045,2019-04-03 15:53:53:850
0.53,0.19,10.39,0.32,-0.32,0.49,0.04,0.0,0.01,2049,2019-04-03 15:53:53:854
0.53,0.19,10.39,0.32,-0.32,0.49,0.04,0.0,0.01,2054,2019-04-03 15:53:53:859
0.53,0.19,10.39,0.32,-0.32,0.49,0.04,0.0,0.01,2061,2019-04-03 15:53:53:866
0.53,0.19,10.39,0.32,-0.32,0.49,0.04,0.0,0.01,2064,2019-04-03 15:53:53:869
0.53,0.19,10.39,0.32,-0.32,0.49,0.04,0.0,0.01,2068,2019-04-03 15:53:53:873
0.26,1.06,9.84,0.04,0.49,-0.05,0.0,0.0,0.03,2075,2019-04-03 15:53:53:880
0.26,1.06,9.84,0.04,0.49,-0.05,0.0,0.0,0.03,2081,2019-04-03 15:53:53:886
0.26,1.06,9.84,0.04,0.49,-0.05,0.0,0.0,0.03,2084,2019-04-03 15:53:53:889
0.26,1.06,9.84,0.04,0.49,-0.05,0.0,0.0,0.03,2088,2019-04-03 15:53:53:893
-0.08,0.97,9.84,-0.32,0.34,-0.03,-0.01,0.0,0.05,2097,2019-04-03 15:53:53:902
-0.08,0.97,9.84,-0.32,0.34,-0.03,-0.01,0.0,0.05,2099,2019-04-03 15:53:53:904
-0.08,0.97,9.84,-0.32,0.34,-0.03,-0.01,0.0,0.05,2105,2019-04-03 15:53:53:910
-0.08,0.97,9.84,-0.32,0.34,-0.03,-0.01,0.0,0.05,2109,2019-04-03 15:53:53:914
0.89,0.22,10.21,0.65,-0.37,0.34,0.03,0.0,0.05,2117,2019-04-03 15:53:53:922
0.23,1.09,9.68,0.02,0.59,-0.14,0.02,0.05,0.06,2122,2019-04-03 15:53:53:927
0.23,1.09,9.68,0.02,0.59,-0.14,0.02,0.05,0.06,2124,2019-04-03 15:53:53:929
0.23,1.09,9.68,0.02,0.59,-0.14,0.02,0.05,0.06,2129,2019-04-03 15:53:53:934
0.23,1.09,9.68,0.02,0.59,-0.14,0.02,0.05,0.06,2136,2019-04-03 15:53:53:941
0.23,1.09,9.68,0.02,0.59,-0.14,0.02,0.05,0.06,2139,2019-04-03 15:53:53:944
-0.2,0.11,9.97,-0.41,-0.3,0.12,-0.03,0.02,0.06,2145,2019-04-03 15:53:53:950
-0.2,0.11,9.97,-0.41,-0.3,0.12,-0.03,0.02,0.06,2148,2019-04-03 15:53:53:953
-0.2,0.11,9.97,-0.41,-0.3,0.12,-0.03,0.02,0.06,2154,2019-04-03 15:53:53:959
-0.2,0.11,9.97,-0.41,-0.3,0.12,-0.03,0.02,0.06,2159,2019-04-03 15:53:53:964
-0.43,0.29,10.1,-0.6,-0.16,0.24,0.04,0.01,0.05,2165,2019-04-03 15:53:53:970
-0.43,0.29,10.1,-0.6,-0.16,0.24,0.04,0.01,0.05,2169,2019-04-03 15:53:53:974
-0.43,0.29,10.1,-0.6,-0.16,0.24,0.04,0.01,0.05,2174,2019-04-03 15:53:53:979
-0.43,0.29,10.1,-0.6,-0.16,0.24,0.04,0.01,0.05,2179,2019-04-03 15:53:53:984
-0.57,0.92,9.65,-0.63,0.41,-0.2,0.01,0.02,0.05,2184,2019-04-03 15:53:53:989
-0.57,0.92,9.65,-0.63,0.41,-0.2,0.01,0.02,0.05,2189,2019-04-03 15:53:53:994
-0.57,0.92,9.65,-0.63,0.41,-0.2,-0.03,0.0,0.02,2194,2019-04-03 15:53:53:999
-0.57,0.92,9.65,-0.63,0.41,-0.2,-0.03,0.0,0.02,2200,2019-04-03 15:53:54:005
-0.57,0.92,9.65,-0.63,0.41,-0.2,-0.03,0.0,0.02,2205,2019-04-03 15:53:54:010
-0.57,0.92,9.65,-0.63,0.41,-0.2,-0.03,0.0,0.02,2209,2019-04-03 15:53:54:014
-0.57,0.92,9.65,-0.63,0.41,-0.2,-0.03,0.0,0.02,2214,2019-04-03 15:53:54:019
-0.62,0.59,9.88,-0.63,0.41,-0.2,0.03,0.0,0.0,2220,2019-04-03 15:53:54:025
-0.62,0.59,9.88,-0.51,0.0,-0.02,0.03,0.0,0.0,2225,2019-04-03 15:53:54:030
-0.62,0.59,9.88,-0.51,0.0,-0.02,0.01,-0.02,-0.04,2229,2019-04-03 15:53:54:034
-0.62,0.59,9.88,-0.51,0.0,-0.02,0.01,-0.02,-0.04,2234,2019-04-03 15:53:54:039
-0.62,0.59,9.88,-0.51,0.0,-0.02,0.01,-0.02,-0.04,2239,2019-04-03 15:53:54:044
-0.62,0.59,9.88,-0.51,0.0,-0.02,0.01,-0.02,-0.04,2245,2019-04-03 15:53:54:050
-0.62,0.59,9.88,-0.51,0.0,-0.02,0.01,-0.02,-0.04,2250,2019-04-03 15:53:54:055
-0.62,0.59,9.88,-0.51,0.0,-0.02,0.01,-0.02,-0.04,2254,2019-04-03 15:53:54:059
0.18,0.36,10.29,0.38,-0.23,0.39,-0.02,0.0,-0.05,2259,2019-04-03 15:53:54:064
0.18,0.36,10.29,0.38,-0.23,0.39,-0.02,0.0,-0.05,2266,2019-04-03 15:53:54:071
0.18,0.36,10.29,0.38,-0.23,0.39,-0.02,0.0,-0.05,2269,2019-04-03 15:53:54:074
0.75,0.38,10.17,0.89,-0.13,0.23,0.01,0.0,-0.04,2274,2019-04-03 15:53:54:079
0.75,0.38,10.17,0.89,-0.13,0.23,0.01,0.0,-0.04,2279,2019-04-03 15:53:54:084
0.75,0.38,10.17,0.89,-0.13,0.23,0.01,0.0,-0.04,2287,2019-04-03 15:53:54:092
0.75,0.38,10.17,0.89,-0.13,0.23,0.01,0.0,-0.04,2289,2019-04-03 15:53:54:094
0.75,0.38,10.17,0.89,-0.13,0.23,0.01,0.0,-0.04,2294,2019-04-03 15:53:54:099
0.75,0.38,10.17,0.89,-0.13,0.23,0.01,0.0,-0.04,2299,2019-04-03 15:53:54:104
0.75,0.38,10.17,0.89,-0.13,0.23,0.01,0.0,-0.04,2304,2019-04-03 15:53:54:109
0.21,0.65,9.85,0.38,0.11,-0.06,0.0,-0.03,-0.01,2312,2019-04-03 15:53:54:117
0.21,0.65,9.85,0.38,0.11,-0.06,0.0,-0.03,-0.01,2314,2019-04-03 15:53:54:119
0.36,0.6,10.7,0.52,0.04,0.71,0.0,-0.01,0.0,2323,2019-04-03 15:53:54:128
0.36,0.6,10.7,0.52,0.04,0.71,0.0,-0.01,0.0,2329,2019-04-03 15:53:54:134
0.36,0.6,10.7,0.52,0.04,0.71,0.0,-0.01,0.0,2329,2019-04-03 15:53:54:134
0.36,0.6,10.7,0.52,0.04,0.71,0.0,-0.01,0.0,2334,2019-04-03 15:53:54:139
0.36,0.6,10.7,0.52,0.04,0.71,0.0,-0.01,0.0,2340,2019-04-03 15:53:54:145
0.2,0.71,9.82,0.37,0.1,-0.13,0.01,0.0,0.01,2354,2019-04-03 15:53:54:159
0.2,0.71,9.82,0.37,0.1,-0.13,0.01,0.0,0.01,2355,2019-04-03 15:53:54:160
0.2,0.71,9.82,0.37,0.1,-0.13,0.01,0.0,0.01,2355,2019-04-03 15:53:54:160
0.2,0.71,9.82,0.37,0.1,-0.13,0.01,0.0,0.01,2362,2019-04-03 15:53:54:167
0.06,0.27,9.88,0.37,0.1,-0.13,0.01,0.0,0.01,2369,2019-04-03 15:53:54:174
0.06,0.27,9.88,0.37,0.1,-0.13,0.01,0.0,0.01,2371,2019-04-03 15:53:54:176
0.06,0.27,9.88,0.08,-0.33,-0.05,0.0,-0.01,0.0,2374,2019-04-03 15:53:54:179
0.06,0.27,9.88,0.08,-0.33,-0.05,0.0,-0.01,0.0,2380,2019-04-03 15:53:54:185
0.06,0.27,9.88,0.08,-0.33,-0.05,0.0,-0.01,0.0,2385,2019-04-03 15:53:54:190
0.06,0.27,9.88,0.08,-0.33,-0.05,0.0,-0.01,0.0,2389,2019-04-03 15:53:54:194
0.12,0.32,9.94,0.06,-0.28,0.0,0.01,0.0,0.0,2394,2019-04-03 15:53:54:199
0.12,0.32,9.94,0.06,-0.28,0.0,0.01,0.0,0.0,2400,2019-04-03 15:53:54:205
0.12,0.32,9.94,0.06,-0.28,0.0,0.01,0.0,0.0,2405,2019-04-03 15:53:54:210
0.12,0.32,9.94,0.06,-0.28,0.0,0.01,0.0,0.0,2409,2019-04-03 15:53:54:214
0.12,0.02,9.95,0.0,-0.5,0.0,0.0,0.0,0.0,2414,2019-04-03 15:53:54:219
0.12,0.02,9.95,0.0,-0.5,0.0,0.0,0.0,0.0,2419,2019-04-03 15:53:54:224
0.12,0.02,9.95,0.0,-0.5,0.0,0.0,0.0,0.0,2425,2019-04-03 15:53:54:230
0.12,0.02,9.95,0.0,-0.5,0.0,0.0,0.0,0.0,2429,2019-04-03 15:53:54:234
0.12,0.02,9.95,0.0,-0.5,0.0,0.0,0.0,0.0,2434,2019-04-03 15:53:54:239
0.12,0.02,9.95,0.0,-0.5,0.0,0.0,0.0,0.0,2439,2019-04-03 15:53:54:244
0.22,0.13,10.07,0.06,-0.32,0.11,0.0,0.0,-0.01,2445,2019-04-03 15:53:54:250
0.22,0.13,10.07,0.06,-0.32,0.11,0.0,0.0,-0.01,2450,2019-04-03 15:53:54:255
0.22,0.13,10.07,0.06,-0.32,0.11,0.0,0.0,-0.01,2454,2019-04-03 15:53:54:259
0.22,0.13,10.07,0.06,-0.32,0.11,0.0,0.0,-0.01,2459,2019-04-03 15:53:54:264
0.06,0.29,9.91,-0.12,-0.13,-0.05,0.0,0.0,-0.01,2464,2019-04-03 15:53:54:269
0.06,0.29,9.91,-0.12,-0.13,-0.05,0.0,0.0,-0.01,2469,2019-04-03 15:53:54:274
0.06,0.29,9.91,-0.12,-0.13,-0.05,0.0,0.0,-0.01,2474,2019-04-03 15:53:54:279
0.06,0.29,9.91,-0.12,-0.13,-0.05,0.0,0.0,-0.01,2479,2019-04-03 15:53:54:284
0.06,0.29,9.91,-0.12,-0.13,-0.05,0.0,0.0,-0.01,2484,2019-04-03 15:53:54:289
0.26,0.34,10.03,0.07,-0.06,0.03,-0.01,0.0,-0.01,2489,2019-04-03 15:53:54:294
0.26,0.34,10.03,0.07,-0.06,0.03,-0.01,0.0,-0.01,2493,2019-04-03 15:53:54:298
0.0,0.31,9.78,0.07,-0.06,0.03,0.0,0.03,0.0,2500,2019-04-03 15:53:54:305
0.0,0.31,9.78,0.07,-0.06,0.03,0.0,0.03,0.0,2503,2019-04-03 15:53:54:308
0.0,0.31,9.78,-0.12,-0.06,-0.19,0.0,0.02,0.0,2510,2019-04-03 15:53:54:315
0.0,0.31,9.78,-0.12,-0.06,-0.19,0.0,0.02,0.0,2514,2019-04-03 15:53:54:319
0.0,0.31,9.78,-0.12,-0.06,-0.19,0.0,0.02,0.0,2518,2019-04-03 15:53:54:323
0.0,0.31,9.78,-0.12,-0.06,-0.19,0.0,0.02,0.0,2526,2019-04-03 15:53:54:331
0.0,0.31,9.78,-0.12,-0.06,-0.19,0.0,0.02,0.0,2529,2019-04-03 15:53:54:334
0.0,0.31,9.78,-0.12,-0.06,-0.19,0.0,0.02,0.0,2534,2019-04-03 15:53:54:339
0.0,0.31,9.78,-0.12,-0.06,-0.19,0.0,0.02,0.0,2539,2019-04-03 15:53:54:344
0.1,0.47,9.97,-0.12,-0.06,-0.19,0.0,0.02,0.0,2544,2019-04-03 15:53:54:349
0.1,0.47,9.97,0.0,0.14,0.03,0.0,0.0,0.0,2550,2019-04-03 15:53:54:355
0.1,0.47,9.97,0.0,0.14,0.03,0.0,0.0,0.0,2554,2019-04-03 15:53:54:359
0.1,0.47,9.97,0.0,0.14,0.03,0.0,0.0,0.0,2559,2019-04-03 15:53:54:364
0.24,0.64,10.0,0.14,0.3,0.05,0.0,0.01,0.0,2564,2019-04-03 15:53:54:369
0.24,0.64,10.0,0.14,0.3,0.05,0.0,0.01,0.0,2570,2019-04-03 15:53:54:375
0.1,0.62,9.99,0.14,0.3,0.05,0.0,0.02,0.0,2574,2019-04-03 15:53:54:379
0.1,0.62,9.99,0.14,0.3,0.05,0.0,0.02,0.0,2579,2019-04-03 15:53:54:384
0.1,0.62,9.99,0.14,0.3,0.05,0.0,0.02,0.0,2585,2019-04-03 15:53:54:390
0.1,0.62,9.99,0.14,0.3,0.05,0.0,0.02,0.0,2589,2019-04-03 15:53:54:394
0.1,0.62,9.99,0.14,0.3,0.05,0.0,0.02,0.0,2594,2019-04-03 15:53:54:399
0.1,0.62,9.99,0.14,0.3,0.05,0.0,0.02,0.0,2598,2019-04-03 15:53:54:403
-0.01,0.57,9.91,-0.09,0.19,-0.04,0.0,0.02,0.01,2604,2019-04-03 15:53:54:409
-0.01,0.57,9.91,-0.09,0.19,-0.04,0.0,0.02,0.01,2608,2019-04-03 15:53:54:413
-0.01,0.57,9.91,-0.09,0.19,-0.04,0.0,0.02,0.01,2614,2019-04-03 15:53:54:419
-0.01,0.57,9.91,-0.09,0.19,-0.04,0.0,0.02,0.01,2618,2019-04-03 15:53:54:423
-0.04,0.43,9.84,-0.12,0.0,-0.11,0.0,0.01,0.02,2625,2019-04-03 15:53:54:430
-0.04,0.43,9.84,-0.12,0.0,-0.11,0.0,0.01,0.02,2630,2019-04-03 15:53:54:435
-0.04,0.43,9.84,-0.12,0.0,-0.11,0.0,0.01,0.02,2633,2019-04-03 15:53:54:438
-0.04,0.43,9.84,-0.12,0.0,-0.11,0.0,0.01,0.02,2639,2019-04-03 15:53:54:444
-0.14,0.33,9.84,-0.19,-0.11,-0.09,0.0,0.0,0.02,2644,2019-04-03 15:53:54:449
-0.14,0.33,9.84,-0.19,-0.11,-0.09,0.0,0.0,0.02,2650,2019-04-03 15:53:54:455
-0.14,0.33,9.84,-0.19,-0.11,-0.09,0.0,0.0,0.02,2655,2019-04-03 15:53:54:460
-0.14,0.33,9.84,-0.19,-0.11,-0.09,0.0,0.0,0.02,2658,2019-04-03 15:53:54:463
0.14,0.51,9.91,0.1,0.03,0.0,0.0,0.0,0.02,2664,2019-04-03 15:53:54:469
0.14,0.51,9.91,0.1,0.03,0.0,0.0,0.0,0.02,2669,2019-04-03 15:53:54:474
0.14,0.51,9.91,0.1,0.03,0.0,0.0,0.0,0.02,2675,2019-04-03 15:53:54:480
0.14,0.51,9.91,0.1,0.03,0.0,0.0,0.0,0.02,2678,2019-04-03 15:53:54:483
-0.15,0.44,10.06,-0.16,-0.02,0.14,0.0,0.0,0.02,2684,2019-04-03 15:53:54:489
-0.15,0.44,10.06,-0.16,-0.02,0.14,0.0,0.0,0.02,2689,2019-04-03 15:53:54:494
-0.15,0.44,10.06,-0.16,-0.02,0.14,0.0,0.0,0.02,2694,2019-04-03 15:53:54:499
-0.15,0.44,10.06,-0.16,-0.02,0.14,0.0,0.0,0.02,2699,2019-04-03 15:53:54:504
-0.03,0.58,9.75,-0.06,0.08,-0.15,0.0,0.0,0.01,2707,2019-04-03 15:53:54:512
-0.03,0.58,9.75,-0.06,0.08,-0.15,0.0,0.0,0.01,2710,2019-04-03 15:53:54:515
-0.03,0.58,9.75,-0.06,0.08,-0.15,0.0,0.0,0.01,2714,2019-04-03 15:53:54:519
-0.03,0.58,9.75,-0.06,0.08,-0.15,0.0,0.0,0.01,2719,2019-04-03 15:53:54:524
0.13,0.68,9.96,0.09,0.15,0.05,0.0,0.0,0.0,2727,2019-04-03 15:53:54:532
0.13,0.68,9.96,0.09,0.15,0.05,0.0,0.0,0.0,2731,2019-04-03 15:53:54:536
0.13,0.68,9.96,0.09,0.15,0.05,0.0,0.0,0.0,2734,2019-04-03 15:53:54:539
0.13,0.68,9.96,0.09,0.15,0.05,0.0,0.0,0.0,2739,2019-04-03 15:53:54:544
0.15,0.56,9.76,0.1,0.02,-0.14,0.0,0.0,0.01,2744,2019-04-03 15:53:54:549
0.15,0.56,9.76,0.1,0.02,-0.14,0.0,0.0,0.01,2749,2019-04-03 15:53:54:554
0.15,0.56,9.76,0.1,0.02,-0.14,0.0,0.0,0.01,2756,2019-04-03 15:53:54:561
0.15,0.56,9.76,0.1,0.02,-0.14,0.0,0.0,0.01,2759,2019-04-03 15:53:54:564
-0.06,0.54,9.86,-0.09,0.0,-0.03,0.0,0.0,0.01,2765,2019-04-03 15:53:54:570
-0.06,0.54,9.86,-0.09,0.0,-0.03,0.0,0.0,0.01,2771,2019-04-03 15:53:54:576
-0.06,0.54,9.86,-0.09,0.0,-0.03,0.0,0.0,0.01,2774,2019-04-03 15:53:54:579
-0.06,0.54,9.86,-0.09,0.0,-0.03,0.0,0.0,0.01,2779,2019-04-03 15:53:54:584
-0.46,0.5,9.84,-0.46,-0.03,-0.02,0.0,0.01,0.0,2787,2019-04-03 15:53:54:592
-0.46,0.5,9.84,-0.46,-0.03,-0.02,0.0,0.01,0.0,2793,2019-04-03 15:53:54:598
-0.46,0.5,9.84,-0.46,-0.03,-0.02,0.0,0.01,0.0,2794,2019-04-03 15:53:54:599
-0.46,0.19,9.93,-0.23,-0.31,0.05,0.0,-0.01,-0.02,2799,2019-04-03 15:53:54:604
-0.25,0.19,9.93,-0.23,-0.31,0.05,0.0,-0.01,-0.02,2803,2019-04-03 15:53:54:608
-0.25,0.19,9.93,-0.23,-0.31,0.05,0.0,-0.01,-0.02,2810,2019-04-03 15:53:54:615
-0.25,0.19,9.93,-0.23,-0.31,0.05,0.0,-0.01,-0.03,2815,2019-04-03 15:53:54:620
-0.25,0.19,9.93,-0.23,-0.31,0.05,0.0,-0.01,-0.03,2819,2019-04-03 15:53:54:624
-0.25,0.19,9.93,-0.23,-0.31,0.05,0.0,-0.01,-0.03,2824,2019-04-03 15:53:54:629
0.13,0.14,9.92,0.15,-0.31,0.03,0.0,0.0,-0.02,2830,2019-04-03 15:53:54:635
0.13,0.14,9.92,0.15,-0.31,0.03,0.0,0.0,-0.02,2834,2019-04-03 15:53:54:639
0.13,0.14,9.92,0.15,-0.31,0.03,0.0,0.0,-0.02,2839,2019-04-03 15:53:54:644
0.13,0.14,9.92,0.15,-0.31,0.03,0.0,0.0,-0.02,2844,2019-04-03 15:53:54:649
0.13,0.14,9.92,0.15,-0.31,0.03,0.0,0.0,-0.02,2851,2019-04-03 15:53:54:656
0.13,0.14,9.92,0.15,-0.31,0.03,0.0,0.0,-0.02,2853,2019-04-03 15:53:54:658
0.13,0.14,9.92,0.15,-0.31,0.03,0.0,0.0,-0.02,2859,2019-04-03 15:53:54:664
0.32,0.07,9.8,0.31,-0.33,-0.07,0.0,0.0,-0.02,2864,2019-04-03 15:53:54:669
0.32,0.07,9.8,0.31,-0.33,-0.07,0.0,0.0,-0.02,2872,2019-04-03 15:53:54:677
0.32,0.07,9.8,0.31,-0.33,-0.07,0.0,0.0,-0.02,2874,2019-04-03 15:53:54:679
0.32,0.07,9.8,0.31,-0.33,-0.07,0.0,0.0,-0.02,2879,2019-04-03 15:53:54:684
0.45,0.26,9.84,0.38,-0.12,-0.02,0.01,-0.02,0.0,2885,2019-04-03 15:53:54:690
0.45,0.26,9.84,0.38,-0.12,-0.02,0.01,-0.03,0.04,2889,2019-04-03 15:53:54:694
-0.26,0.88,9.64,-0.35,0.5,-0.22,0.01,-0.03,0.04,2894,2019-04-03 15:53:54:699
-0.26,0.88,9.64,-0.35,0.5,-0.22,0.01,-0.03,0.04,2899,2019-04-03 15:53:54:704
-0.26,0.88,9.64,-0.35,0.5,-0.22,0.01,-0.03,0.04,2904,2019-04-03 15:53:54:709
-0.26,0.88,9.64,-0.35,0.5,-0.22,0.01,-0.03,0.04,2910,2019-04-03 15:53:54:715
-0.26,0.88,9.64,-0.35,0.5,-0.22,0.01,-0.03,0.04,2914,2019-04-03 15:53:54:719
-0.4,1.1,9.38,-0.46,0.69,-0.45,0.02,0.0,0.06,2919,2019-04-03 15:53:54:724
-0.4,1.1,9.38,-0.46,0.69,-0.45,0.02,0.0,0.06,2924,2019-04-03 15:53:54:729
-0.4,1.1,9.38,-0.46,0.69,-0.45,0.02,0.0,0.06,2929,2019-04-03 15:53:54:734
-1.4,0.61,9.63,-1.36,0.2,-0.19,0.0,0.0,0.01,2934,2019-04-03 15:53:54:739
-1.4,0.61,9.63,-1.36,0.2,-0.19,0.0,0.0,0.01,2939,2019-04-03 15:53:54:744
-1.4,0.61,9.63,-1.36,0.2,-0.19,0.0,0.0,0.01,2945,2019-04-03 15:53:54:750
-1.4,0.61,9.63,-1.36,0.2,-0.19,0.0,0.0,0.01,2948,2019-04-03 15:53:54:753
-1.4,0.61,9.63,-1.36,0.2,-0.19,0.0,0.0,0.01,2954,2019-04-03 15:53:54:759
-1.4,0.61,9.63,-1.36,0.2,-0.19,0.0,0.0,0.01,2958,2019-04-03 15:53:54:763
-0.13,0.33,10.27,-0.06,-0.07,0.41,0.02,-0.07,-0.03,2963,2019-04-03 15:53:54:768
-0.13,0.33,10.27,-0.06,-0.07,0.41,0.02,-0.07,-0.03,2969,2019-04-03 15:53:54:774
1.06,0.54,10.12,0.84,-0.18,0.32,0.03,-0.05,-0.03,2974,2019-04-03 15:53:54:779
1.06,0.54,10.12,0.84,-0.18,0.32,0.03,-0.05,-0.03,2979,2019-04-03 15:53:54:784
1.06,0.54,10.12,0.84,-0.18,0.32,0.03,-0.05,-0.03,2984,2019-04-03 15:53:54:789
1.06,0.54,10.12,0.84,-0.18,0.32,0.03,-0.05,-0.03,2989,2019-04-03 15:53:54:794
1.06,0.54,10.12,0.84,-0.18,0.32,0.03,-0.05,-0.03,2994,2019-04-03 15:53:54:799
1.06,0.54,10.12,0.84,-0.18,0.32,0.03,-0.05,-0.03,2999,2019-04-03 15:53:54:804
0.25,0.15,10.0,0.18,-0.22,0.11,-0.01,0.0,0.01,3004,2019-04-03 15:53:54:809
0.25,0.15,10.0,0.18,-0.22,0.11,-0.01,0.0,0.01,3010,2019-04-03 15:53:54:815
0.48,0.55,9.76,0.18,-0.22,0.11,0.01,-0.02,0.03,3016,2019-04-03 15:53:54:821
0.48,0.55,9.76,0.18,-0.22,0.11,0.01,-0.02,0.03,3019,2019-04-03 15:53:54:824
0.48,0.55,9.76,0.18,-0.22,0.11,0.01,-0.02,0.03,3024,2019-04-03 15:53:54:829
0.48,0.55,9.76,0.18,-0.22,0.11,0.01,-0.02,0.03,3029,2019-04-03 15:53:54:834
0.14,0.68,9.9,-0.01,0.23,0.0,0.0,0.0,0.02,3035,2019-04-03 15:53:54:840
0.14,0.68,9.9,-0.01,0.23,0.0,0.0,0.0,0.02,3040,2019-04-03 15:53:54:845
0.14,0.68,9.9,-0.01,0.23,0.0,0.0,0.0,0.02,3044,2019-04-03 15:53:54:849
0.14,0.68,9.9,-0.01,0.23,0.0,0.0,0.0,0.02,3049,2019-04-03 15:53:54:854
0.39,0.5,10.16,0.25,0.0,0.24,-0.01,0.0,0.01,3053,2019-04-03 15:53:54:858
0.39,0.5,10.16,0.25,0.0,0.24,-0.01,0.0,0.01,3059,2019-04-03 15:53:54:864
0.39,0.5,10.16,0.25,0.0,0.24,-0.01,0.0,0.01,3065,2019-04-03 15:53:54:870
0.39,0.5,10.16,0.25,0.0,0.24,-0.01,0.0,0.01,3069,2019-04-03 15:53:54:874
0.05,0.69,9.91,-0.02,0.14,0.0,0.0,0.02,0.01,3077,2019-04-03 15:53:54:882
0.05,0.69,9.91,-0.02,0.14,0.0,0.0,0.02,0.01,3080,2019-04-03 15:53:54:885
0.05,0.69,9.91,-0.02,0.14,0.0,0.0,0.02,0.01,3084,2019-04-03 15:53:54:889
0.05,0.69,9.91,-0.02,0.14,0.0,0.0,0.02,0.01,3091,2019-04-03 15:53:54:896
-0.22,0.69,9.69,-0.24,0.12,-0.2,0.0,0.03,0.0,3094,2019-04-03 15:53:54:899
-0.22,0.69,9.69,-0.24,0.12,-0.2,0.0,0.03,0.0,3100,2019-04-03 15:53:54:905
-0.22,0.69,9.69,-0.24,0.12,-0.2,0.0,0.03,0.0,3104,2019-04-03 15:53:54:909
-0.22,0.69,9.69,-0.24,0.12,-0.2,0.0,0.03,0.0,3111,2019-04-03 15:53:54:916
-0.09,0.5,9.85,-0.14,-0.02,-0.08,-0.01,0.01,-0.01,3114,2019-04-03 15:53:54:919
-0.09,0.5,9.85,-0.14,-0.02,-0.08,-0.01,0.01,-0.01,3119,2019-04-03 15:53:54:924
-0.09,0.5,9.85,-0.14,-0.02,-0.08,-0.01,0.01,-0.01,3125,2019-04-03 15:53:54:930
-0.09,0.5,9.85,-0.14,-0.02,-0.08,-0.01,0.01,-0.01,3129,2019-04-03 15:53:54:934
0.04,0.62,10.13,-0.08,0.09,0.17,0.0,0.01,-0.03,3134,2019-04-03 15:53:54:939
0.04,0.62,10.13,-0.08,0.09,0.17,0.0,0.01,-0.03,3139,2019-04-03 15:53:54:944
0.04,0.62,10.13,-0.08,0.09,0.17,0.0,0.01,-0.03,3145,2019-04-03 15:53:54:950
0.04,0.62,10.13,-0.08,0.09,0.17,0.0,0.01,-0.03,3148,2019-04-03 15:53:54:953
0.04,0.62,10.13,-0.08,0.09,0.17,0.0,0.01,-0.03,3154,2019-04-03 15:53:54:959
0.28,0.49,10.0,0.09,-0.03,0.04,0.0,0.01,-0.03,3159,2019-04-03 15:53:54:964
0.28,0.49,10.0,0.09,-0.03,0.04,0.0,0.01,-0.03,3165,2019-04-03 15:53:54:970
0.28,0.49,10.0,0.09,-0.03,0.04,0.0,0.01,-0.03,3170,2019-04-03 15:53:54:975
-0.03,0.65,9.68,0.09,-0.03,0.04,-0.01,0.03,-0.01,3174,2019-04-03 15:53:54:979
-0.03,0.65,9.68,0.21,0.42,0.09,-0.01,0.03,-0.01,3179,2019-04-03 15:53:54:984
-0.03,0.65,9.68,0.21,0.42,0.09,-0.01,0.03,-0.01,3184,2019-04-03 15:53:54:989
0.04,1.05,9.88,0.21,0.42,0.09,0.0,0.01,-0.01,3189,2019-04-03 15:53:54:994
0.04,1.05,9.88,0.21,0.42,0.09,0.0,0.01,-0.01,3194,2019-04-03 15:53:54:999
0.04,1.05,9.88,-0.09,0.4,-0.04,0.0,0.01,-0.01,3199,2019-04-03 15:53:55:004
0.04,1.05,9.88,-0.09,0.4,-0.04,0.0,0.01,-0.01,3204,2019-04-03 15:53:55:009
0.04,1.05,9.88,-0.09,0.4,-0.04,0.0,0.01,-0.01,3209,2019-04-03 15:53:55:014
0.3,1.1,9.84,0.23,0.42,-0.07,0.0,0.01,0.0,3214,2019-04-03 15:53:55:019
0.3,1.1,9.84,0.23,0.42,-0.07,0.0,0.01,0.0,3222,2019-04-03 15:53:55:027
0.3,1.1,9.84,0.23,0.42,-0.07,0.0,0.01,0.0,3223,2019-04-03 15:53:55:028
0.08,1.26,9.86,0.02,0.49,-0.03,0.0,0.02,0.0,3237,2019-04-03 15:53:55:042
0.08,1.26,9.86,0.02,0.49,-0.03,0.0,0.02,0.0,3245,2019-04-03 15:53:55:050
0.08,1.26,9.86,0.02,0.49,-0.03,0.0,0.02,0.0,3246,2019-04-03 15:53:55:051
0.08,1.26,9.86,0.02,0.49,-0.03,0.0,0.02,0.0,3246,2019-04-03 15:53:55:051
0.08,1.26,9.86,0.02,0.49,-0.03,0.0,0.02,0.0,3251,2019-04-03 15:53:55:056
0.08,1.26,9.86,0.02,0.49,-0.03,0.0,0.02,0.0,3255,2019-04-03 15:53:55:060
0.08,1.26,9.86,0.02,0.49,-0.03,0.0,0.02,0.0,3259,2019-04-03 15:53:55:064
-0.06,1.42,9.66,-0.11,0.56,-0.2,0.01,0.01,0.01,3264,2019-04-03 15:53:55:069
-0.06,1.42,9.66,-0.11,0.56,-0.2,0.01,0.0,0.01,3269,2019-04-03 15:53:55:074
-0.24,1.32,9.7,-0.11,0.56,-0.2,0.01,0.0,0.01,3273,2019-04-03 15:53:55:078
-0.24,1.32,9.7,-0.11,0.56,-0.2,0.01,0.0,0.01,3281,2019-04-03 15:53:55:086
-0.24,1.32,9.7,-0.11,0.56,-0.2,0.01,0.0,0.01,3284,2019-04-03 15:53:55:089
-0.24,1.32,9.7,-0.11,0.56,-0.2,0.01,0.0,0.01,3289,2019-04-03 15:53:55:094
-0.14,1.18,9.83,-0.17,0.2,-0.03,0.01,0.0,0.0,3295,2019-04-03 15:53:55:100
-0.14,1.18,9.83,-0.17,0.2,-0.03,0.01,0.0,0.0,3299,2019-04-03 15:53:55:104
-0.14,1.18,9.83,-0.17,0.2,-0.03,0.01,0.0,0.0,3304,2019-04-03 15:53:55:109
-0.02,1.39,9.88,-0.05,0.33,0.03,0.03,0.0,-0.02,3309,2019-04-03 15:53:55:114
-0.02,1.39,9.88,-0.05,0.33,0.03,0.03,0.0,-0.02,3314,2019-04-03 15:53:55:119
-0.02,1.39,9.88,-0.05,0.33,0.03,0.03,0.0,-0.02,3321,2019-04-03 15:53:55:126
-0.02,1.39,9.88,-0.05,0.33,0.03,0.03,0.0,-0.02,3324,2019-04-03 15:53:55:129
-0.02,1.39,9.88,-0.05,0.33,0.03,0.03,0.0,-0.02,3329,2019-04-03 15:53:55:134
-0.22,1.55,9.9,-0.23,0.41,0.06,0.03,0.0,-0.02,3335,2019-04-03 15:53:55:140
-0.22,1.55,9.9,-0.23,0.41,0.06,0.03,0.0,-0.02,3340,2019-04-03 15:53:55:145
-0.22,1.55,9.9,-0.23,0.41,0.06,0.03,0.0,-0.02,3344,2019-04-03 15:53:55:149
-0.22,1.55,9.9,-0.23,0.41,0.06,0.03,0.0,-0.02,3349,2019-04-03 15:53:55:154
-0.06,1.43,10.02,-0.04,0.19,0.2,0.03,-0.01,-0.03,3355,2019-04-03 15:53:55:160
-0.06,1.43,10.02,-0.04,0.19,0.2,0.03,-0.01,-0.03,3361,2019-04-03 15:53:55:166
-0.06,1.43,10.02,-0.04,0.19,0.2,0.03,-0.01,-0.03,3364,2019-04-03 15:53:55:169
-0.06,1.43,10.02,-0.04,0.19,0.2,0.03,-0.01,-0.03,3369,2019-04-03 15:53:55:174
0.24,0.98,9.96,0.27,-0.29,0.11,0.03,-0.02,-0.03,3375,2019-04-03 15:53:55:180
0.24,0.98,9.96,0.27,-0.29,0.11,0.03,-0.02,-0.03,3379,2019-04-03 15:53:55:184
0.24,0.98,9.96,0.27,-0.29,0.11,0.03,-0.02,-0.03,3384,2019-04-03 15:53:55:189
0.24,0.98,9.96,0.27,-0.29,0.11,0.03,-0.02,-0.03,3389,2019-04-03 15:53:55:194
0.0,0.68,9.68,0.03,-0.56,-0.17,0.03,0.0,-0.03,3395,2019-04-03 15:53:55:200
0.0,0.68,9.68,0.03,-0.56,-0.17,0.03,0.0,-0.03,3402,2019-04-03 15:53:55:207
0.0,0.68,9.68,0.03,-0.56,-0.17,0.03,0.0,-0.03,3403,2019-04-03 15:53:55:208
0.23,1.18,9.74,0.27,-0.07,-0.08,0.03,0.0,-0.05,3409,2019-04-03 15:53:55:214
0.23,1.18,9.74,0.27,-0.07,-0.08,0.03,0.0,-0.05,3426,2019-04-03 15:53:55:231
0.23,1.18,9.74,0.27,-0.07,-0.08,0.03,0.0,-0.05,3430,2019-04-03 15:53:55:235
0.23,1.18,9.74,0.27,-0.07,-0.08,0.03,0.0,-0.05,3430,2019-04-03 15:53:55:235
0.23,1.18,9.74,0.27,-0.07,-0.08,0.03,0.0,-0.05,3431,2019-04-03 15:53:55:236
0.02,1.15,9.67,0.08,-0.08,-0.14,-0.01,0.01,-0.05,3435,2019-04-03 15:53:55:240
0.02,1.15,9.67,0.08,-0.08,-0.14,-0.01,0.01,-0.05,3439,2019-04-03 15:53:55:244
0.02,1.15,9.67,0.08,-0.08,-0.14,-0.01,0.01,-0.05,3445,2019-04-03 15:53:55:250
0.02,1.15,9.67,0.08,-0.08,-0.14,-0.01,0.01,-0.05,3449,2019-04-03 15:53:55:254
0.32,1.33,9.65,0.35,0.1,-0.15,-0.01,0.01,-0.04,3454,2019-04-03 15:53:55:259
0.32,1.33,9.65,0.35,0.1,-0.15,-0.01,0.01,-0.04,3458,2019-04-03 15:53:55:263
0.32,1.33,9.65,0.35,0.1,-0.15,-0.01,0.01,-0.04,3464,2019-04-03 15:53:55:269
0.42,1.95,10.02,0.35,0.1,-0.15,-0.01,0.01,-0.01,3469,2019-04-03 15:53:55:274
0.42,1.95,10.02,0.37,0.68,0.2,0.0,0.0,-0.01,3475,2019-04-03 15:53:55:280
0.42,1.95,10.02,0.37,0.68,0.2,0.0,0.0,-0.01,3479,2019-04-03 15:53:55:284
0.42,1.95,10.02,0.37,0.68,0.2,0.0,0.0,-0.01,3484,2019-04-03 15:53:55:289
0.42,1.95,10.02,0.37,0.68,0.2,0.0,0.0,-0.01,3489,2019-04-03 15:53:55:294
0.78,1.91,9.67,0.67,0.57,-0.18,-0.01,0.0,0.0,3494,2019-04-03 15:53:55:299
0.78,1.91,9.67,0.67,0.57,-0.18,-0.01,0.0,0.0,3499,2019-04-03 15:53:55:304
0.78,1.91,9.67,0.67,0.57,-0.18,-0.01,0.0,0.0,3503,2019-04-03 15:53:55:308
0.78,1.91,9.67,0.67,0.57,-0.18,-0.01,0.0,0.0,3509,2019-04-03 15:53:55:314
-0.31,1.2,9.49,-0.42,-0.13,-0.32,-0.02,0.04,0.02,3514,2019-04-03 15:53:55:319
-0.31,1.2,9.49,-0.42,-0.13,-0.32,-0.02,0.04,0.02,3519,2019-04-03 15:53:55:324
-0.31,1.2,9.49,-0.42,-0.13,-0.32,-0.02,0.04,0.02,3524,2019-04-03 15:53:55:329
-0.31,1.2,9.49,-0.42,-0.13,-0.32,-0.02,0.04,0.02,3529,2019-04-03 15:53:55:334
-0.31,1.2,9.49,-0.42,-0.13,-0.32,-0.02,0.04,0.02,3533,2019-04-03 15:53:55:338
-0.31,1.2,9.49,-0.42,-0.13,-0.32,-0.02,0.04,0.02,3539,2019-04-03 15:53:55:344
-0.06,1.73,9.77,-0.22,0.36,-0.03,0.01,-0.01,0.01,3544,2019-04-03 15:53:55:349
-0.06,1.73,9.77,-0.22,0.36,-0.03,0.01,-0.01,0.01,3549,2019-04-03 15:53:55:354
-0.06,1.73,9.77,-0.22,0.36,-0.03,0.01,-0.01,0.01,3555,2019-04-03 15:53:55:360
-0.06,1.73,9.77,-0.22,0.36,-0.03,0.01,-0.01,0.01,3559,2019-04-03 15:53:55:364
-0.06,1.73,9.77,-0.22,0.36,-0.03,0.01,-0.01,0.01,3565,2019-04-03 15:53:55:370
-0.06,1.73,9.77,-0.22,0.36,-0.03,0.01,-0.01,0.01,3569,2019-04-03 15:53:55:374
0.04,1.57,10.08,-0.09,0.15,0.27,-0.01,0.06,0.01,3574,2019-04-03 15:53:55:379
0.04,1.57,10.08,-0.09,0.15,0.27,-0.01,0.06,0.01,3579,2019-04-03 15:53:55:384
0.04,1.57,10.08,-0.09,0.15,0.27,-0.01,0.06,0.01,3585,2019-04-03 15:53:55:390
0.04,1.63,9.95,-0.09,0.15,0.27,-0.01,0.06,0.01,3589,2019-04-03 15:53:55:394
0.0,1.63,9.95,-0.14,0.13,0.14,-0.01,0.03,-0.01,3594,2019-04-03 15:53:55:399
0.0,1.63,9.95,-0.14,0.13,0.14,-0.01,0.03,-0.01,3600,2019-04-03 15:53:55:405
0.0,1.63,9.95,-0.14,0.13,0.14,-0.01,0.03,-0.01,3604,2019-04-03 15:53:55:409
0.0,1.63,9.95,-0.14,0.13,0.14,-0.01,0.03,-0.01,3609,2019-04-03 15:53:55:414
-0.56,1.03,9.82,-0.65,-0.48,-0.02,0.0,0.04,-0.03,3614,2019-04-03 15:53:55:419
-0.56,1.03,9.82,-0.65,-0.48,-0.02,0.0,0.04,-0.03,3619,2019-04-03 15:53:55:424
-0.56,1.03,9.82,-0.65,-0.48,-0.02,0.0,0.04,-0.03,3624,2019-04-03 15:53:55:429
-0.56,1.03,9.82,-0.65,-0.48,-0.02,0.0,0.04,-0.03,3628,2019-04-03 15:53:55:433
-0.37,1.93,9.67,-0.45,0.35,-0.17,0.0,0.03,-0.07,3634,2019-04-03 15:53:55:439
-0.37,1.93,9.67,-0.45,0.35,-0.17,0.0,0.03,-0.07,3639,2019-04-03 15:53:55:444
-0.37,1.93,9.67,-0.45,0.35,-0.17,0.0,0.03,-0.07,3644,2019-04-03 15:53:55:449
-0.37,1.93,9.67,-0.45,0.35,-0.17,0.0,0.03,-0.07,3648,2019-04-03 15:53:55:453
-0.37,1.93,9.67,-0.45,0.35,-0.17,0.0,0.03,-0.07,3653,2019-04-03 15:53:55:458
-0.37,1.93,9.67,-0.45,0.35,-0.17,0.0,0.03,-0.07,3658,2019-04-03 15:53:55:463
-0.41,1.12,10.21,-0.39,-0.44,0.34,-0.03,0.01,-0.11,3664,2019-04-03 15:53:55:469
-0.41,1.12,10.21,-0.39,-0.44,0.34,-0.03,0.01,-0.11,3669,2019-04-03 15:53:55:474
-0.21,0.95,9.74,-0.03,-0.52,-0.06,0.0,0.03,-0.17,3673,2019-04-03 15:53:55:478
-0.21,0.95,9.74,-0.03,-0.52,-0.06,0.0,0.03,-0.17,3679,2019-04-03 15:53:55:484
-0.21,0.95,9.74,-0.03,-0.52,-0.06,0.0,0.03,-0.17,3684,2019-04-03 15:53:55:489
-0.21,0.95,9.74,-0.03,-0.52,-0.06,0.0,0.03,-0.17,3689,2019-04-03 15:53:55:494
-0.33,1.0,9.47,-0.1,-0.42,-0.33,-0.02,0.0,-0.23,3694,2019-04-03 15:53:55:499
-0.33,1.0,9.47,-0.1,-0.42,-0.33,-0.02,0.0,-0.23,3698,2019-04-03 15:53:55:503
-0.33,1.0,9.47,-0.1,-0.42,-0.33,-0.02,0.0,-0.23,3704,2019-04-03 15:53:55:509
-0.33,1.0,9.47,-0.1,-0.42,-0.33,-0.02,0.0,-0.23,3709,2019-04-03 15:53:55:514
-0.33,1.0,9.47,-0.1,-0.42,-0.33,-0.02,0.0,-0.23,3714,2019-04-03 15:53:55:519
-0.33,1.0,9.47,-0.1,-0.42,-0.33,-0.02,0.0,-0.23,3719,2019-04-03 15:53:55:524
0.11,0.87,10.17,0.35,-0.5,0.32,-0.04,-0.03,-0.29,3724,2019-04-03 15:53:55:529
0.11,0.87,10.17,0.35,-0.5,0.32,-0.04,-0.03,-0.29,3729,2019-04-03 15:53:55:534
0.11,0.87,10.17,0.35,-0.5,0.32,-0.05,-0.02,-0.35,3734,2019-04-03 15:53:55:539
0.11,0.87,10.17,0.35,-0.5,0.32,-0.05,-0.02,-0.35,3739,2019-04-03 15:53:55:544
0.11,0.87,10.17,0.35,-0.5,0.32,-0.05,-0.02,-0.35,3744,2019-04-03 15:53:55:549
0.11,0.87,10.17,0.35,-0.5,0.32,-0.05,-0.02,-0.35,3748,2019-04-03 15:53:55:553
0.04,-0.55,9.89,0.23,-1.63,0.08,-0.15,-0.06,-0.4,3754,2019-04-03 15:53:55:559
0.04,-0.55,9.89,0.23,-1.63,0.08,-0.15,-0.06,-0.4,3760,2019-04-03 15:53:55:565
0.04,-0.55,9.89,0.23,-1.63,0.08,-0.15,-0.06,-0.4,3764,2019-04-03 15:53:55:569
-1.9,2.21,10.21,0.23,-1.63,0.08,-0.06,-0.04,-0.42,3769,2019-04-03 15:53:55:574
-1.9,2.21,10.21,0.23,-1.63,0.08,-0.06,-0.04,-0.42,3774,2019-04-03 15:53:55:579
-1.9,2.21,10.21,0.23,-1.63,0.08,-0.06,-0.04,-0.42,3778,2019-04-03 15:53:55:583
-1.6,5.36,9.89,-1.62,1.25,0.26,0.0,0.13,-0.33,3784,2019-04-03 15:53:55:589
-1.6,5.36,9.89,-1.62,1.25,0.26,0.0,0.13,-0.33,3789,2019-04-03 15:53:55:594
-1.6,5.36,9.89,-1.62,1.25,0.26,-0.13,0.03,-0.35,3794,2019-04-03 15:53:55:599
-1.6,5.36,9.89,-1.62,1.25,0.26,-0.13,0.03,-0.35,3799,2019-04-03 15:53:55:604
-1.6,5.36,9.89,-1.62,1.25,0.26,-0.13,0.03,-0.35,3804,2019-04-03 15:53:55:609
-1.6,5.36,9.89,-1.62,1.25,0.26,-0.13,0.03,-0.35,3809,2019-04-03 15:53:55:614
1.61,3.85,10.17,-1.62,1.25,0.26,0.01,0.01,-0.37,3814,2019-04-03 15:53:55:619
1.61,3.85,10.17,1.93,2.41,-0.06,0.01,0.01,-0.37,3819,2019-04-03 15:53:55:624
1.61,3.85,10.17,1.93,2.41,-0.06,0.01,0.01,-0.37,3824,2019-04-03 15:53:55:629
1.61,3.85,10.17,1.93,2.41,-0.06,0.01,0.01,-0.37,3829,2019-04-03 15:53:55:634
1.61,3.85,10.17,1.93,2.41,-0.06,0.01,0.01,-0.37,3833,2019-04-03 15:53:55:638
-1.29,0.74,8.14,-1.01,-0.7,-1.99,-0.16,0.1,-0.34,3839,2019-04-03 15:53:55:644
-1.29,0.74,8.14,-1.01,-0.7,-1.99,-0.16,0.1,-0.34,3844,2019-04-03 15:53:55:649
-1.29,0.74,8.14,-1.01,-0.7,-1.99,-0.16,0.1,-0.34,3848,2019-04-03 15:53:55:653
-1.29,0.74,8.14,-1.01,-0.7,-1.99,-0.16,0.1,-0.34,3854,2019-04-03 15:53:55:659
-1.29,0.74,8.14,-1.01,-0.7,-1.99,-0.16,0.1,-0.34,3859,2019-04-03 15:53:55:664
-1.29,0.74,8.14,-1.01,-0.7,-1.99,-0.16,0.1,-0.34,3864,2019-04-03 15:53:55:669
-1.29,0.74,8.14,-1.01,-0.7,-1.99,-0.16,0.1,-0.34,3869,2019-04-03 15:53:55:674
2.7,2.14,10.66,-1.01,-0.7,-1.99,-0.04,-0.14,-0.3,3873,2019-04-03 15:53:55:678
2.7,2.14,10.66,2.62,0.69,0.49,-0.04,-0.14,-0.3,3879,2019-04-03 15:53:55:684
2.7,2.14,10.66,2.62,0.69,0.49,-0.04,-0.14,-0.3,3884,2019-04-03 15:53:55:689
0.58,-0.86,11.13,0.49,-2.29,0.93,-0.16,0.02,-0.26,3889,2019-04-03 15:53:55:694
0.58,-0.86,11.13,0.49,-2.29,0.93,-0.16,0.02,-0.26,3896,2019-04-03 15:53:55:701
0.58,-0.86,11.13,0.49,-2.29,0.93,-0.16,0.02,-0.26,3898,2019-04-03 15:53:55:703
0.58,-0.86,11.13,0.49,-2.29,0.93,-0.16,0.02,-0.26,3904,2019-04-03 15:53:55:709
0.58,-0.86,11.13,0.49,-2.29,0.93,-0.16,0.02,-0.26,3909,2019-04-03 15:53:55:714
0.06,1.67,9.42,-0.04,0.2,-0.73,0.05,0.0,-0.28,3914,2019-04-03 15:53:55:719
0.06,1.67,9.42,-0.04,0.2,-0.73,0.05,0.0,-0.28,3919,2019-04-03 15:53:55:724
0.06,1.67,9.42,-0.04,0.2,-0.73,-0.08,-0.05,-0.28,3924,2019-04-03 15:53:55:729
-0.34,0.77,9.13,-0.51,-0.67,-1.03,-0.08,-0.05,-0.28,3929,2019-04-03 15:53:55:734
-0.34,0.77,9.13,-0.51,-0.67,-1.03,-0.08,-0.05,-0.28,3933,2019-04-03 15:53:55:738
-0.34,0.77,9.13,-0.51,-0.67,-1.03,-0.08,-0.05,-0.28,3938,2019-04-03 15:53:55:743
-0.34,0.77,9.13,-0.51,-0.67,-1.03,-0.08,-0.05,-0.28,3944,2019-04-03 15:53:55:749
-0.34,0.77,9.13,-0.51,-0.67,-1.03,-0.08,-0.05,-0.28,3949,2019-04-03 15:53:55:754
1.17,0.29,10.76,0.94,-1.19,0.54,-0.11,-0.02,-0.24,3954,2019-04-03 15:53:55:759
1.17,0.29,10.76,0.94,-1.19,0.54,-0.11,-0.02,-0.24,3959,2019-04-03 15:53:55:764
3.66,-1.13,9.38,0.94,-1.19,0.54,-0.04,0.09,-0.18,3964,2019-04-03 15:53:55:769
3.66,-1.13,9.38,0.94,-1.19,0.54,-0.04,0.09,-0.18,3969,2019-04-03 15:53:55:774
3.66,-1.13,9.38,0.94,-1.19,0.54,-0.04,0.09,-0.18,3974,2019-04-03 15:53:55:779
3.66,-1.13,9.38,0.94,-1.19,0.54,-0.04,0.09,-0.18,3979,2019-04-03 15:53:55:784
1.22,-1.57,10.22,0.62,-2.48,0.38,-0.05,-0.12,-0.19,3984,2019-04-03 15:53:55:789
1.22,-1.57,10.22,0.62,-2.48,0.38,-0.05,-0.12,-0.19,3989,2019-04-03 15:53:55:794
1.22,-1.57,10.22,0.62,-2.48,0.38,-0.05,-0.12,-0.19,3994,2019-04-03 15:53:55:799
1.22,-1.57,10.22,0.62,-2.48,0.38,-0.05,-0.14,-0.21,3999,2019-04-03 15:53:55:804
6.49,1.35,7.67,5.8,0.59,-1.69,0.0,-0.14,-0.21,4007,2019-04-03 15:53:55:812
6.49,1.35,7.67,5.8,0.59,-1.69,0.0,-0.14,-0.21,4009,2019-04-03 15:53:55:814
6.49,1.35,7.67,5.8,0.59,-1.69,0.0,-0.14,-0.21,4014,2019-04-03 15:53:55:819
6.49,1.35,7.67,5.8,0.59,-1.69,0.0,-0.14,-0.21,4019,2019-04-03 15:53:55:824
-5.48,1.81,7.13,-5.98,1.08,-2.02,0.15,0.35,-0.12,4024,2019-04-03 15:53:55:829
-5.48,1.81,7.13,-5.98,1.08,-2.02,0.15,0.35,-0.12,4029,2019-04-03 15:53:55:834
-5.48,1.81,7.13,-5.98,1.08,-2.02,0.15,0.35,-0.12,4034,2019-04-03 15:53:55:839
-5.48,1.81,7.13,-5.98,1.08,-2.02,0.15,0.35,-0.12,4039,2019-04-03 15:53:55:844
-5.48,1.81,7.13,-5.98,1.08,-2.02,0.15,0.35,-0.12,4045,2019-04-03 15:53:55:850
-5.48,1.81,7.13,-5.98,1.08,-2.02,0.15,0.35,-0.12,4049,2019-04-03 15:53:55:854
-1.21,1.11,12.13,-1.64,0.44,2.59,-0.15,-0.18,-0.22,4054,2019-04-03 15:53:55:859
-1.21,1.11,12.13,-1.64,0.44,2.59,-0.15,-0.18,-0.22,4059,2019-04-03 15:53:55:864
-0.11,1.54,10.67,-1.64,0.44,2.59,0.02,-0.11,-0.26,4064,2019-04-03 15:53:55:869
-0.11,1.54,10.67,-1.64,0.44,2.59,0.02,-0.11,-0.26,4069,2019-04-03 15:53:55:874
-0.11,1.54,10.67,-1.64,0.44,2.59,0.02,-0.11,-0.26,4074,2019-04-03 15:53:55:879
-0.11,1.54,10.67,-1.64,0.44,2.59,0.02,-0.11,-0.26,4078,2019-04-03 15:53:55:883
0.2,2.24,9.47,-0.12,1.13,-0.22,-0.04,0.1,-0.28,4084,2019-04-03 15:53:55:889
0.2,2.24,9.47,-0.12,1.13,-0.22,-0.04,0.1,-0.28,4089,2019-04-03 15:53:55:894
0.2,2.24,9.47,-0.12,1.13,-0.22,-0.04,0.1,-0.28,4095,2019-04-03 15:53:55:900
0.2,2.24,9.47,-0.12,1.13,-0.22,-0.04,0.1,-0.28,4099,2019-04-03 15:53:55:904
0.2,2.24,9.47,-0.12,1.13,-0.22,-0.04,0.1,-0.28,4104,2019-04-03 15:53:55:909
0.2,2.24,9.47,-0.12,1.13,-0.22,-0.04,0.1,-0.28,4109,2019-04-03 15:53:55:914
0.2,2.24,9.47,-0.12,1.13,-0.22,-0.04,0.1,-0.28,4117,2019-04-03 15:53:55:922
0.2,2.24,9.47,-0.12,1.13,-0.22,-0.04,0.1,-0.28,4119,2019-04-03 15:53:55:924
-1.6,-1.14,10.02,-1.95,-2.12,0.19,-0.13,0.12,-0.29,4124,2019-04-03 15:53:55:929
-1.6,-1.14,10.02,-1.95,-2.12,0.19,-0.13,0.12,-0.29,4129,2019-04-03 15:53:55:934
-1.6,-1.14,10.02,-1.95,-2.12,0.19,-0.13,0.12,-0.29,4134,2019-04-03 15:53:55:939
-1.6,-1.14,10.02,-1.95,-2.12,0.19,-0.13,0.12,-0.29,4139,2019-04-03 15:53:55:944
0.77,0.26,10.23,0.47,-0.66,0.34,-0.01,0.02,-0.36,4145,2019-04-03 15:53:55:950
0.77,0.26,10.23,0.47,-0.66,0.34,-0.01,0.02,-0.36,4149,2019-04-03 15:53:55:954
0.77,0.26,10.23,0.47,-0.66,0.34,-0.01,0.02,-0.36,4155,2019-04-03 15:53:55:960
0.77,0.26,10.23,0.47,-0.66,0.34,-0.01,0.02,-0.36,4159,2019-04-03 15:53:55:964
-6.0,-0.01,7.43,0.47,-0.66,0.34,-0.1,0.21,-0.33,4164,2019-04-03 15:53:55:969
-6.0,-0.01,7.43,-5.97,-0.84,-2.54,-0.1,0.21,-0.33,4169,2019-04-03 15:53:55:974
-6.0,-0.01,7.43,-5.97,-0.84,-2.54,-0.1,0.21,-0.33,4173,2019-04-03 15:53:55:978
-6.0,-0.01,7.43,-5.97,-0.84,-2.54,-0.1,0.21,-0.33,4179,2019-04-03 15:53:55:984
2.98,0.54,11.7,2.73,-0.57,1.72,0.03,-0.3,-0.37,4184,2019-04-03 15:53:55:989
2.98,0.54,11.7,2.73,-0.57,1.72,0.03,-0.3,-0.37,4189,2019-04-03 15:53:55:994
2.98,0.54,11.7,2.73,-0.57,1.72,0.03,-0.3,-0.37,4195,2019-04-03 15:53:56:000
2.98,0.54,11.7,2.73,-0.57,1.72,0.03,-0.3,-0.37,4198,2019-04-03 15:53:56:003
4.46,2.14,10.16,4.39,1.07,0.03,0.0,-0.08,-0.29,4204,2019-04-03 15:53:56:009
4.46,2.14,10.16,4.39,1.07,0.03,0.0,-0.08,-0.29,4209,2019-04-03 15:53:56:014
4.46,2.14,10.16,4.39,1.07,0.03,0.0,-0.08,-0.29,4214,2019-04-03 15:53:56:019
4.46,2.14,10.16,4.39,1.07,0.03,0.0,-0.08,-0.29,4219,2019-04-03 15:53:56:024
-1.96,-3.97,11.6,-2.1,-4.77,1.15,-0.16,0.29,-0.24,4224,2019-04-03 15:53:56:029
-1.96,-3.97,11.6,-2.1,-4.77,1.15,-0.16,0.29,-0.24,4229,2019-04-03 15:53:56:034
-1.96,-3.97,11.6,-2.1,-4.77,1.15,-0.16,0.29,-0.24,4234,2019-04-03 15:53:56:039
-1.96,-3.97,11.6,-2.1,-4.77,1.15,-0.16,0.29,-0.24,4238,2019-04-03 15:53:56:043
-4.53,4.86,5.34,-4.73,3.89,-4.4,0.34,0.04,-0.27,4244,2019-04-03 15:53:56:049
-4.53,4.86,5.34,-4.73,3.89,-4.4,0.34,0.04,-0.27,4249,2019-04-03 15:53:56:054
-4.53,4.86,5.34,-4.73,3.89,-4.4,0.34,0.04,-0.27,4254,2019-04-03 15:53:56:059
-4.53,4.86,5.34,-4.73,3.89,-4.4,0.34,0.04,-0.27,4260,2019-04-03 15:53:56:065
-4.53,4.86,5.34,-4.73,3.89,-4.4,0.34,0.04,-0.27,4264,2019-04-03 15:53:56:069
4.17,0.1,14.51,3.73,-0.51,4.48,-0.16,-0.37,-0.3,4269,2019-04-03 15:53:56:074
4.17,0.1,14.51,3.73,-0.51,4.48,-0.16,-0.37,-0.3,4274,2019-04-03 15:53:56:079
4.17,0.1,14.51,3.73,-0.51,4.48,-0.16,-0.37,-0.3,4279,2019-04-03 15:53:56:084
1.67,-1.58,13.01,1.47,-2.06,3.0,-0.08,0.14,-0.22,4283,2019-04-03 15:53:56:088
1.67,-1.58,13.01,1.47,-2.06,3.0,-0.08,0.14,-0.22,4288,2019-04-03 15:53:56:093
1.67,-1.58,13.01,1.47,-2.06,3.0,-0.08,0.14,-0.22,4293,2019-04-03 15:53:56:098
1.67,-1.58,13.01,1.47,-2.06,3.0,-0.08,0.14,-0.22,4299,2019-04-03 15:53:56:104
-7.88,0.62,7.78,-7.86,0.06,-2.17,0.17,0.36,-0.22,4304,2019-04-03 15:53:56:109
-7.88,0.62,7.78,-7.86,0.06,-2.17,0.17,0.36,-0.22,4309,2019-04-03 15:53:56:114
-7.88,0.62,7.78,-7.86,0.06,-2.17,0.17,0.36,-0.22,4314,2019-04-03 15:53:56:119
-7.88,0.62,7.78,-7.86,0.06,-2.17,0.17,0.36,-0.22,4319,2019-04-03 15:53:56:124
-7.88,0.62,7.78,-7.86,0.06,-2.17,0.17,0.36,-0.22,4325,2019-04-03 15:53:56:130
-2.07,-2.57,16.79,-7.86,0.06,-2.17,-0.07,-0.35,-0.32,4330,2019-04-03 15:53:56:135
-2.07,-2.57,16.79,-2.3,-2.79,6.29,-0.07,-0.35,-0.32,4334,2019-04-03 15:53:56:139
-2.07,-2.57,16.79,-2.3,-2.79,6.29,-0.07,-0.35,-0.32,4339,2019-04-03 15:53:56:144
-2.07,-2.57,16.79,-2.3,-2.79,6.29,-0.07,-0.35,-0.32,4344,2019-04-03 15:53:56:149
-2.07,-2.57,16.79,-2.3,-2.79,6.29,-0.07,-0.35,-0.32,4349,2019-04-03 15:53:56:154
7.96,-1.59,14.58,7.78,-1.83,3.88,0.01,-0.31,-0.34,4354,2019-04-03 15:53:56:159
7.96,-1.59,14.58,7.78,-1.83,3.88,0.01,-0.31,-0.34,4358,2019-04-03 15:53:56:163
7.96,-1.59,14.58,7.78,-1.83,3.88,0.01,-0.31,-0.34,4364,2019-04-03 15:53:56:169
7.96,-1.59,14.58,7.78,-1.83,3.88,0.01,-0.31,-0.34,4369,2019-04-03 15:53:56:174
-0.15,-4.4,5.47,-0.43,-4.19,-4.86,0.0,0.35,-0.29,4373,2019-04-03 15:53:56:178
-0.15,-4.4,5.47,-0.43,-4.19,-4.86,0.0,0.35,-0.29,4379,2019-04-03 15:53:56:184
-2.81,2.3,10.07,-0.43,-4.19,-4.86,0.02,0.11,-0.28,4384,2019-04-03 15:53:56:189
-2.81,2.3,10.07,0.07,5.97,4.68,0.02,0.11,-0.28,4389,2019-04-03 15:53:56:194
-2.81,2.3,10.07,0.07,5.97,4.68,0.02,0.11,-0.28,4394,2019-04-03 15:53:56:199
-2.81,2.3,10.07,0.07,5.97,4.68,0.02,0.11,-0.28,4398,2019-04-03 15:53:56:203
2.32,4.36,17.48,2.1,4.35,6.19,-0.12,-0.33,-0.2,4404,2019-04-03 15:53:56:209
2.32,4.36,17.48,2.1,4.35,6.19,-0.12,-0.33,-0.2,4409,2019-04-03 15:53:56:214
2.32,4.36,17.48,2.1,4.35,6.19,-0.12,-0.33,-0.2,4414,2019-04-03 15:53:56:219
2.32,4.36,17.48,2.1,4.35,6.19,-0.12,-0.33,-0.2,4419,2019-04-03 15:53:56:224
2.32,4.36,17.48,2.1,4.35,6.19,-0.12,-0.33,-0.2,4424,2019-04-03 15:53:56:229
2.32,4.36,17.48,2.1,4.35,6.19,-0.12,-0.33,-0.2,4429,2019-04-03 15:53:56:234
0.03,5.77,13.68,0.0,4.93,1.93,0.26,-0.05,-0.1,4434,2019-04-03 15:53:56:239
0.03,5.77,13.68,0.0,4.93,1.93,0.26,-0.05,-0.1,4439,2019-04-03 15:53:56:244
0.03,5.77,13.68,0.0,4.93,1.93,0.26,-0.05,-0.1,4445,2019-04-03 15:53:56:250
0.03,5.77,13.68,0.0,4.93,1.93,0.26,-0.05,-0.1,4449,2019-04-03 15:53:56:254
0.03,5.77,13.68,0.0,4.93,1.93,0.26,-0.05,-0.1,4454,2019-04-03 15:53:56:259
0.03,5.77,13.68,0.0,4.93,1.93,0.26,-0.05,-0.1,4459,2019-04-03 15:53:56:264
0.03,5.77,13.68,0.0,4.93,1.93,0.26,-0.05,-0.1,4465,2019-04-03 15:53:56:270
0.03,5.77,13.68,0.0,4.93,1.93,0.26,-0.05,-0.1,4469,2019-04-03 15:53:56:274
1.73,-6.4,14.93,1.91,-6.49,3.24,-0.11,-0.14,-0.16,4474,2019-04-03 15:53:56:279
1.73,-6.4,14.93,1.91,-6.49,3.24,-0.11,-0.14,-0.16,4479,2019-04-03 15:53:56:284
5.49,3.58,13.32,1.91,-6.49,3.24,0.18,-0.26,-0.17,4484,2019-04-03 15:53:56:289
5.49,3.58,13.32,1.91,-6.49,3.24,0.18,-0.26,-0.17,4489,2019-04-03 15:53:56:294
5.49,3.58,13.32,1.91,-6.49,3.24,0.18,-0.26,-0.17,4494,2019-04-03 15:53:56:299
5.49,3.58,13.32,1.91,-6.49,3.24,0.18,-0.26,-0.17,4499,2019-04-03 15:53:56:304
-7.77,-0.09,6.9,-7.77,-0.14,-4.6,-0.26,0.25,-0.03,4504,2019-04-03 15:53:56:309
-7.77,-0.09,6.9,-7.77,-0.14,-4.6,-0.26,0.25,-0.03,4509,2019-04-03 15:53:56:314
-7.77,-0.09,6.9,-7.77,-0.14,-4.6,-0.26,0.25,-0.03,4514,2019-04-03 15:53:56:319
-7.77,-0.09,6.9,-7.77,-0.14,-4.6,-0.26,0.25,-0.03,4519,2019-04-03 15:53:56:324
-7.77,-0.09,6.9,-7.77,-0.14,-4.6,-0.26,0.25,-0.03,4524,2019-04-03 15:53:56:329
-7.77,-0.09,6.9,-7.77,-0.14,-4.6,-0.26,0.25,-0.03,4529,2019-04-03 15:53:56:334
-3.39,0.32,9.0,-3.33,-0.2,-2.11,0.07,-0.28,-0.16,4534,2019-04-03 15:53:56:339
-3.39,0.32,9.0,-3.33,-0.2,-2.11,0.07,-0.28,-0.16,4539,2019-04-03 15:53:56:344
-3.39,0.32,9.0,-3.33,-0.2,-2.11,0.07,-0.28,-0.16,4544,2019-04-03 15:53:56:349
-3.39,0.32,9.0,-3.33,-0.2,-2.11,0.07,-0.28,-0.16,4549,2019-04-03 15:53:56:354
7.26,3.47,10.7,7.06,2.66,-0.09,0.11,-0.39,-0.16,4554,2019-04-03 15:53:56:359
7.26,3.47,10.7,7.06,2.66,-0.09,0.11,-0.39,-0.16,4559,2019-04-03 15:53:56:364
7.26,3.47,10.7,7.06,2.66,-0.09,0.11,-0.39,-0.16,4564,2019-04-03 15:53:56:369
7.26,3.47,10.7,7.06,2.66,-0.09,0.11,-0.39,-0.16,4569,2019-04-03 15:53:56:374
-0.78,-0.75,10.44,-0.88,-2.13,-0.53,-0.16,0.28,-0.02,4574,2019-04-03 15:53:56:379
-0.78,-0.75,10.44,-0.88,-2.13,-0.53,-0.16,0.28,-0.02,4579,2019-04-03 15:53:56:384
-3.36,2.92,7.64,1.94,1.02,0.2,0.07,0.11,-0.07,4584,2019-04-03 15:53:56:389
-3.36,2.92,7.64,1.94,1.02,0.2,0.07,0.11,-0.07,4589,2019-04-03 15:53:56:394
-3.36,2.92,7.64,1.94,1.02,0.2,0.07,0.11,-0.07,4594,2019-04-03 15:53:56:399
-3.36,2.92,7.64,1.94,1.02,0.2,0.07,0.11,-0.07,4599,2019-04-03 15:53:56:404
-3.36,2.92,7.64,1.94,1.02,0.2,0.07,0.11,-0.07,4605,2019-04-03 15:53:56:410
-3.36,2.92,7.64,1.94,1.02,0.2,0.07,0.11,-0.07,4608,2019-04-03 15:53:56:413
0.05,2.25,9.1,0.11,0.83,-1.03,0.0,-0.13,-0.09,4614,2019-04-03 15:53:56:419
0.05,2.25,9.1,0.11,0.83,-1.03,0.0,-0.13,-0.09,4619,2019-04-03 15:53:56:424
0.05,2.25,9.1,0.11,0.83,-1.03,0.0,-0.13,-0.09,4624,2019-04-03 15:53:56:429
0.05,2.25,9.1,0.11,0.83,-1.03,0.0,-0.13,-0.09,4629,2019-04-03 15:53:56:434
0.41,0.99,9.47,0.25,0.04,-0.23,0.03,-0.02,-0.04,4634,2019-04-03 15:53:56:439
0.41,0.99,9.47,0.25,0.04,-0.23,0.03,-0.02,-0.04,4639,2019-04-03 15:53:56:444
0.41,0.99,9.47,0.25,0.04,-0.23,0.03,-0.02,-0.04,4644,2019-04-03 15:53:56:449
0.41,0.99,9.47,0.25,0.04,-0.23,0.03,-0.02,-0.04,4648,2019-04-03 15:53:56:453
-2.63,1.66,7.09,-2.8,0.52,-2.64,0.05,0.11,0.01,4653,2019-04-03 15:53:56:458
-2.63,1.66,7.09,-2.8,0.52,-2.64,0.05,0.11,0.01,4659,2019-04-03 15:53:56:464
-1.58,-3.26,10.44,0.02,-6.89,-0.26,-0.05,-0.15,-0.03,4664,2019-04-03 15:53:56:469
-1.58,-3.26,10.44,0.02,-6.89,-0.26,-0.05,-0.15,-0.03,4669,2019-04-03 15:53:56:474
-1.58,-3.26,10.44,0.02,-6.89,-0.26,-0.05,-0.15,-0.03,4674,2019-04-03 15:53:56:479
-1.58,-3.26,10.44,0.02,-6.89,-0.26,-0.05,-0.15,-0.03,4679,2019-04-03 15:53:56:484
2.43,1.66,10.01,2.15,0.55,0.14,-0.01,-0.01,0.0,4684,2019-04-03 15:53:56:489
2.43,1.66,10.01,2.15,0.55,0.14,-0.01,-0.01,0.0,4689,2019-04-03 15:53:56:494
2.43,1.66,10.01,2.15,0.55,0.14,-0.01,-0.01,0.0,4694,2019-04-03 15:53:56:499
2.43,1.66,10.01,2.15,0.55,0.14,-0.01,-0.01,0.0,4698,2019-04-03 15:53:56:503
-3.12,-1.9,8.12,-3.49,-2.81,-1.58,-0.17,0.12,0.0,4704,2019-04-03 15:53:56:509
-3.12,-1.9,8.12,-3.49,-2.81,-1.58,-0.17,0.12,0.0,4709,2019-04-03 15:53:56:514
-3.12,-1.9,8.12,-3.49,-2.81,-1.58,-0.17,0.12,0.0,4714,2019-04-03 15:53:56:519
-3.12,-1.9,8.12,-3.49,-2.81,-1.58,-0.17,0.12,0.0,4719,2019-04-03 15:53:56:524
-3.12,-1.9,8.12,-3.49,-2.81,-1.58,-0.17,0.12,0.0,4724,2019-04-03 15:53:56:529
-3.12,-1.9,8.12,-3.49,-2.81,-1.58,-0.17,0.12,0.0,4729,2019-04-03 15:53:56:534
2.13,2.11,8.86,1.81,1.26,-0.63,0.1,-0.12,-0.05,4734,2019-04-03 15:53:56:539
2.13,2.11,8.86,1.81,1.26,-0.63,0.1,-0.12,-0.05,4739,2019-04-03 15:53:56:544
2.13,2.11,8.86,1.81,1.26,-0.63,-0.14,0.11,-0.02,4745,2019-04-03 15:53:56:550
2.13,2.11,8.86,1.81,1.26,-0.63,-0.14,0.11,-0.02,4749,2019-04-03 15:53:56:554
2.13,2.11,8.86,1.81,1.26,-0.63,-0.14,0.11,-0.02,4754,2019-04-03 15:53:56:559
2.13,2.11,8.86,1.81,1.26,-0.63,-0.14,0.11,-0.02,4759,2019-04-03 15:53:56:564
2.13,2.11,8.86,1.81,1.26,-0.63,-0.14,0.11,-0.02,4764,2019-04-03 15:53:56:569
2.13,2.11,8.86,1.81,1.26,-0.63,-0.14,0.11,-0.02,4769,2019-04-03 15:53:56:574
2.92,-0.97,12.92,2.77,-1.6,3.11,-0.01,-0.17,-0.17,4774,2019-04-03 15:53:56:579
2.92,-0.97,12.92,2.77,-1.6,3.11,-0.01,-0.17,-0.17,4779,2019-04-03 15:53:56:584
2.92,-0.97,12.92,2.77,-1.6,3.11,-0.01,-0.17,-0.17,4784,2019-04-03 15:53:56:589
2.92,-0.97,12.92,2.77,-1.6,3.11,-0.01,-0.17,-0.17,4789,2019-04-03 15:53:56:594
0.39,2.6,8.44,0.44,2.13,-1.29,0.22,0.13,-0.16,4794,2019-04-03 15:53:56:599
0.39,2.6,8.44,0.44,2.13,-1.29,0.22,0.13,-0.16,4799,2019-04-03 15:53:56:604
0.39,2.6,8.44,0.44,2.13,-1.29,0.22,0.13,-0.16,4804,2019-04-03 15:53:56:609
0.39,2.6,8.44,0.44,2.13,-1.29,0.22,0.13,-0.16,4808,2019-04-03 15:53:56:613
-2.03,-1.98,8.14,0.44,2.13,-1.29,0.22,0.13,-0.16,4814,2019-04-03 15:53:56:619
-2.03,-1.98,8.14,-1.83,-1.99,-1.52,-0.34,0.23,-0.18,4820,2019-04-03 15:53:56:625
-2.03,-1.98,8.14,-1.83,-1.99,-1.52,-0.34,0.23,-0.18,4824,2019-04-03 15:53:56:629
-2.03,-1.98,8.14,-1.83,-1.99,-1.52,-0.34,0.23,-0.18,4830,2019-04-03 15:53:56:635
4.07,-0.67,8.05,3.93,-0.79,-1.34,0.03,-0.08,-0.33,4837,2019-04-03 15:53:56:642
4.07,-0.67,8.05,3.93,-0.79,-1.34,0.03,-0.08,-0.33,4839,2019-04-03 15:53:56:644
4.07,-0.67,8.05,3.93,-0.79,-1.34,0.03,-0.08,-0.33,4845,2019-04-03 15:53:56:650
4.07,-0.67,8.05,3.93,-0.79,-1.34,0.03,-0.08,-0.33,4849,2019-04-03 15:53:56:654
-0.69,3.52,8.35,-0.79,3.34,-0.74,0.34,0.24,-0.26,4854,2019-04-03 15:53:56:659
-0.69,3.52,8.35,-0.79,3.34,-0.74,0.34,0.24,-0.26,4859,2019-04-03 15:53:56:664
1.0,-0.5,9.3,0.79,-0.94,0.22,-0.27,0.01,-0.28,4864,2019-04-03 15:53:56:669
1.0,-0.5,9.3,0.79,-0.94,0.22,-0.27,0.01,-0.28,4869,2019-04-03 15:53:56:674
1.0,-0.5,9.3,0.79,-0.94,0.22,-0.27,0.01,-0.28,4874,2019-04-03 15:53:56:679
1.0,-0.5,9.3,0.79,-0.94,0.22,-0.27,0.01,-0.28,4879,2019-04-03 15:53:56:684
-1.28,0.86,11.01,-1.29,0.07,2.06,0.01,0.11,-0.2,4884,2019-04-03 15:53:56:689
-1.28,0.86,11.01,-1.29,0.07,2.06,0.01,0.11,-0.2,4889,2019-04-03 15:53:56:694
-1.28,0.86,11.01,-1.29,0.07,2.06,0.01,0.11,-0.2,4895,2019-04-03 15:53:56:700
-1.28,0.86,11.01,-1.29,0.07,2.06,0.01,0.11,-0.2,4899,2019-04-03 15:53:56:704
-1.28,0.86,11.01,-1.29,0.07,2.06,0.01,0.11,-0.2,4904,2019-04-03 15:53:56:709
-1.28,0.86,11.01,-1.29,0.07,2.06,0.01,0.11,-0.2,4909,2019-04-03 15:53:56:714
1.3,3.8,14.4,0.97,2.75,5.24,0.29,-0.1,-0.14,4914,2019-04-03 15:53:56:719
1.3,3.8,14.4,0.97,2.75,5.24,0.29,-0.1,-0.14,4919,2019-04-03 15:53:56:724
1.3,3.8,14.4,0.97,2.75,5.24,-0.14,-0.11,-0.02,4924,2019-04-03 15:53:56:729
1.3,3.8,14.4,0.97,2.75,5.24,-0.14,-0.11,-0.02,4929,2019-04-03 15:53:56:734
1.3,3.8,14.4,0.97,2.75,5.24,-0.14,-0.11,-0.02,4935,2019-04-03 15:53:56:740
1.3,3.8,14.4,0.97,2.75,5.24,-0.14,-0.11,-0.02,4939,2019-04-03 15:53:56:744
1.63,-2.3,9.43,1.15,-3.15,-0.23,-0.11,-0.08,0.05,4944,2019-04-03 15:53:56:749
1.63,-2.3,9.43,1.15,-3.15,-0.23,-0.11,-0.08,0.05,4949,2019-04-03 15:53:56:754
1.63,-2.3,9.43,1.15,-3.15,-0.23,-0.11,-0.08,0.05,4954,2019-04-03 15:53:56:759
1.63,-2.3,9.43,1.15,-3.15,-0.23,-0.11,-0.08,0.05,4958,2019-04-03 15:53:56:763
6.43,1.85,15.71,5.94,1.12,5.72,0.13,-0.22,0.04,4964,2019-04-03 15:53:56:769
6.43,1.85,15.71,5.94,1.12,5.72,0.13,-0.22,0.04,4969,2019-04-03 15:53:56:774
6.43,1.85,15.71,5.94,1.12,5.72,0.13,-0.22,0.04,4974,2019-04-03 15:53:56:779
6.43,1.85,15.71,5.94,1.12,5.72,0.13,-0.22,0.04,4979,2019-04-03 15:53:56:784
-0.33,0.31,12.28,-0.55,-0.18,1.98,-0.12,0.44,0.21,4984,2019-04-03 15:53:56:789
-0.33,0.31,12.28,-0.55,-0.18,1.98,-0.12,0.44,0.21,4989,2019-04-03 15:53:56:794
-0.33,0.31,12.28,-0.55,-0.18,1.98,-0.12,0.44,0.21,4994,2019-04-03 15:53:56:799
-0.33,0.31,12.28,-0.55,-0.18,1.98,-0.12,0.44,0.21,4999,2019-04-03 15:53:56:804
-7.92,-0.04,4.99,-8.23,-0.45,-5.01,-0.04,0.28,0.19,5004,2019-04-03 15:53:56:809
-7.92,-0.04,4.99,-8.23,-0.45,-5.01,-0.04,0.28,0.19,5009,2019-04-03 15:53:56:814
-7.92,-0.04,4.99,-8.23,-0.45,-5.01,-0.04,0.28,0.19,5014,2019-04-03 15:53:56:819
-7.92,-0.04,4.99,-8.23,-0.45,-5.01,-0.04,0.28,0.19,5019,2019-04-03 15:53:56:824
7.78,1.23,14.03,7.43,0.98,3.48,-0.13,-0.57,0.01,5024,2019-04-03 15:53:56:829
7.78,1.23,14.03,7.43,0.98,3.48,-0.13,-0.57,0.01,5029,2019-04-03 15:53:56:834
7.78,1.23,14.03,7.43,0.98,3.48,-0.13,-0.57,0.01,5034,2019-04-03 15:53:56:839
7.78,1.23,14.03,7.43,0.98,3.48,-0.13,-0.57,0.01,5039,2019-04-03 15:53:56:844
-0.96,4.01,6.12,-0.92,3.58,-4.43,0.13,0.27,0.16,5044,2019-04-03 15:53:56:849
-0.96,4.01,6.12,-0.92,3.58,-4.43,0.13,0.27,0.16,5049,2019-04-03 15:53:56:854
-0.96,4.01,6.12,-0.92,3.58,-4.43,0.13,0.27,0.16,5054,2019-04-03 15:53:56:859
-0.96,4.01,6.12,-0.92,3.58,-4.43,0.13,0.27,0.16,5059,2019-04-03 15:53:56:864
3.95,-4.71,9.14,-0.92,3.58,-4.43,0.13,0.27,0.16,5064,2019-04-03 15:53:56:869
3.95,-4.71,9.14,3.78,-4.91,-1.38,-0.13,-0.01,0.11,5069,2019-04-03 15:53:56:874
3.95,-4.71,9.14,3.78,-4.91,-1.38,-0.13,-0.01,0.11,5075,2019-04-03 15:53:56:880
3.95,-4.71,9.14,3.78,-4.91,-1.38,-0.13,-0.01,0.11,5079,2019-04-03 15:53:56:884
3.95,-4.71,9.14,3.78,-4.91,-1.38,-0.13,-0.01,0.11,5084,2019-04-03 15:53:56:889
-3.08,1.22,12.2,-3.03,1.09,1.55,0.26,0.21,0.16,5088,2019-04-03 15:53:56:893
-3.08,1.22,12.2,-3.03,1.09,1.55,0.26,0.21,0.16,5093,2019-04-03 15:53:56:898
-3.08,1.22,12.2,-3.03,1.09,1.55,0.26,0.21,0.16,5099,2019-04-03 15:53:56:904
-2.5,2.02,7.84,-2.13,2.05,-2.89,0.0,0.09,0.07,5104,2019-04-03 15:53:56:909
-2.5,2.02,7.84,-2.13,2.05,-2.89,0.0,0.09,0.07,5109,2019-04-03 15:53:56:914
-2.5,2.02,7.84,-2.13,2.05,-2.89,0.0,0.09,0.07,5114,2019-04-03 15:53:56:919
-2.5,2.02,7.84,-2.13,2.05,-2.89,0.0,0.09,0.07,5119,2019-04-03 15:53:56:924
-3.32,-3.62,8.68,-2.93,-3.46,-1.43,-0.05,-0.02,0.03,5125,2019-04-03 15:53:56:930
-3.32,-3.62,8.68,-2.93,-3.46,-1.43,-0.05,-0.02,0.03,5129,2019-04-03 15:53:56:934
-3.32,-3.62,8.68,-2.93,-3.46,-1.43,-0.05,-0.02,0.03,5134,2019-04-03 15:53:56:939
-3.32,-3.62,8.68,-2.93,-3.46,-1.43,-0.05,-0.02,0.03,5139,2019-04-03 15:53:56:944
-3.32,-3.62,8.68,-2.93,-3.46,-1.43,-0.05,-0.02,0.03,5144,2019-04-03 15:53:56:949
1.43,0.41,12.72,-2.93,-3.46,-1.43,-0.02,-0.16,-0.03,5150,2019-04-03 15:53:56:955
1.43,0.41,12.72,1.95,0.35,2.6,-0.02,-0.16,-0.03,5154,2019-04-03 15:53:56:959
1.43,0.41,12.72,1.95,0.35,2.6,-0.02,-0.16,-0.03,5159,2019-04-03 15:53:56:964
1.43,0.41,12.72,1.95,0.35,2.6,-0.02,-0.16,-0.03,5164,2019-04-03 15:53:56:969
-2.7,3.3,14.83,1.95,0.35,2.6,0.18,0.11,0.0,5169,2019-04-03 15:53:56:974
-2.7,3.3,14.83,-1.95,3.17,4.62,0.18,0.11,0.0,5173,2019-04-03 15:53:56:978
-2.7,3.3,14.83,-1.95,3.17,4.62,0.18,0.11,0.0,5179,2019-04-03 15:53:56:984
-1.84,0.04,11.38,-0.76,-0.13,0.4,-0.27,0.04,-0.11,5184,2019-04-03 15:53:56:989
-1.84,0.04,11.38,-0.76,-0.13,0.4,-0.27,0.04,-0.11,5189,2019-04-03 15:53:56:994
-1.84,0.04,11.38,-0.76,-0.13,0.4,-0.27,0.04,-0.11,5195,2019-04-03 15:53:57:000
-1.84,0.04,11.38,-0.76,-0.13,0.4,-0.27,0.04,-0.11,5199,2019-04-03 15:53:57:004
1.72,-1.89,7.73,2.3,-1.98,-3.37,0.1,-0.18,-0.23,5204,2019-04-03 15:53:57:009
1.72,-1.89,7.73,2.3,-1.98,-3.37,0.1,-0.18,-0.23,5208,2019-04-03 15:53:57:013
1.72,-1.89,7.73,2.3,-1.98,-3.37,0.1,-0.18,-0.23,5214,2019-04-03 15:53:57:019
1.72,-1.89,7.73,2.3,-1.98,-3.37,0.1,-0.18,-0.23,5219,2019-04-03 15:53:57:024
11.67,6.81,-13.24,11.78,6.67,-22.81,0.17,-0.04,-0.11,5225,2019-04-03 15:53:57:030
11.67,6.81,-13.24,11.78,6.67,-22.81,0.17,-0.04,-0.11,5228,2019-04-03 15:53:57:033
11.67,6.81,-13.24,11.78,6.67,-22.81,0.17,-0.04,-0.11,5234,2019-04-03 15:53:57:039
11.67,6.81,-13.24,11.78,6.67,-22.81,0.17,-0.04,-0.11,5239,2019-04-03 15:53:57:044
6.71,-2.9,20.01,6.05,-3.03,10.17,-0.36,-0.27,0.15,5244,2019-04-03 15:53:57:049
6.71,-2.9,20.01,6.05,-3.03,10.17,-0.36,-0.27,0.15,5249,2019-04-03 15:53:57:054
6.71,-2.9,20.01,6.05,-3.03,10.17,-0.36,-0.27,0.15,5254,2019-04-03 15:53:57:059
6.71,-2.9,20.01,6.05,-3.03,10.17,-0.36,-0.27,0.15,5259,2019-04-03 15:53:57:064
1.52,7.77,9.44,6.05,-3.03,10.17,-0.36,-0.27,0.15,5264,2019-04-03 15:53:57:069
1.52,7.77,9.44,1.4,6.92,0.0,0.46,0.0,0.25,5269,2019-04-03 15:53:57:074
1.52,7.77,9.44,1.4,6.92,0.0,0.46,0.0,0.25,5274,2019-04-03 15:53:57:079
1.52,7.77,9.44,1.4,6.92,0.0,0.46,0.0,0.25,5279,2019-04-03 15:53:57:084
-2.12,0.8,7.44,-2.55,0.2,-1.92,-0.2,-0.03,0.35,5283,2019-04-03 15:53:57:088
-2.12,0.8,7.44,-2.55,0.2,-1.92,-0.2,-0.03,0.35,5289,2019-04-03 15:53:57:094
-2.12,0.8,7.44,-2.55,0.2,-1.92,-0.2,-0.03,0.35,5294,2019-04-03 15:53:57:099
-2.12,0.8,7.44,-2.55,0.2,-1.92,-0.2,-0.03,0.35,5298,2019-04-03 15:53:57:103
0.75,-7.06,8.19,0.38,-7.48,-0.94,0.01,-0.14,0.37,5304,2019-04-03 15:53:57:109
0.75,-7.06,8.19,0.38,-7.48,-0.94,0.01,-0.14,0.37,5309,2019-04-03 15:53:57:114
0.75,-7.06,8.19,0.38,-7.48,-0.94,0.01,-0.14,0.37,5314,2019-04-03 15:53:57:119
0.75,-7.06,8.19,0.38,-7.48,-0.94,0.01,-0.14,0.37,5319,2019-04-03 15:53:57:124
0.75,-7.06,8.19,0.38,-7.48,-0.94,0.01,-0.14,0.37,5324,2019-04-03 15:53:57:129
0.75,-7.06,8.19,0.38,-7.48,-0.94,0.01,-0.14,0.37,5329,2019-04-03 15:53:57:134
-4.41,4.65,10.27,-4.51,4.14,0.7,0.38,0.15,0.41,5334,2019-04-03 15:53:57:139
-4.41,4.65,10.27,-4.51,4.14,0.7,0.38,0.15,0.41,5339,2019-04-03 15:53:57:144
1.66,2.47,12.06,-4.51,4.14,0.7,-0.23,-0.07,0.31,5345,2019-04-03 15:53:57:150
1.66,2.47,12.06,1.39,2.01,2.83,-0.23,-0.07,0.31,5349,2019-04-03 15:53:57:154
1.66,2.47,12.06,1.39,2.01,2.83,-0.23,-0.07,0.31,5354,2019-04-03 15:53:57:159
1.66,2.47,12.06,1.39,2.01,2.83,-0.23,-0.07,0.31,5359,2019-04-03 15:53:57:164
0.09,0.52,9.6,1.39,2.01,2.83,0.16,-0.14,0.28,5364,2019-04-03 15:53:57:169
0.09,0.52,9.6,-0.32,0.18,0.64,0.16,-0.14,0.28,5368,2019-04-03 15:53:57:173
0.09,0.52,9.6,-0.32,0.18,0.64,0.16,-0.14,0.28,5374,2019-04-03 15:53:57:179
0.09,0.52,9.6,-0.32,0.18,0.64,0.16,-0.14,0.28,5378,2019-04-03 15:53:57:183
4.1,1.28,8.48,3.15,0.58,0.31,0.21,-0.1,0.28,5383,2019-04-03 15:53:57:188
4.1,1.28,8.48,3.15,0.58,0.31,0.21,-0.1,0.28,5388,2019-04-03 15:53:57:193
4.1,1.28,8.48,3.15,0.58,0.31,0.21,-0.1,0.28,5394,2019-04-03 15:53:57:199
4.1,1.28,8.48,3.15,0.58,0.31,0.21,-0.1,0.28,5399,2019-04-03 15:53:57:204
0.08,-0.83,7.16,-0.65,-1.51,-0.81,-0.12,0.1,0.29,5404,2019-04-03 15:53:57:209
0.08,-0.83,7.16,-0.65,-1.51,-0.81,-0.12,0.1,0.29,5409,2019-04-03 15:53:57:214
0.08,-0.83,7.16,-0.65,-1.51,-0.81,-0.12,0.1,0.29,5414,2019-04-03 15:53:57:219
0.08,-0.83,7.16,-0.65,-1.51,-0.81,-0.12,0.1,0.29,5419,2019-04-03 15:53:57:224
0.08,-0.83,7.16,-0.65,-1.51,-0.81,-0.12,0.1,0.29,5424,2019-04-03 15:53:57:229
0.08,-0.83,7.16,-0.65,-1.51,-0.81,-0.12,0.1,0.29,5429,2019-04-03 15:53:57:234
-3.74,-0.52,6.93,-3.58,-1.12,-2.13,-0.08,0.18,0.25,5433,2019-04-03 15:53:57:238
-3.74,-0.52,6.93,-3.58,-1.12,-2.13,-0.08,0.18,0.25,5439,2019-04-03 15:53:57:244
-3.74,-0.52,6.93,-3.58,-1.12,-2.13,-0.07,0.21,0.22,5444,2019-04-03 15:53:57:249
-3.74,-0.52,6.93,-3.58,-1.12,-2.13,-0.07,0.21,0.22,5449,2019-04-03 15:53:57:254
-3.74,-0.52,6.93,-3.58,-1.12,-2.13,-0.07,0.21,0.22,5454,2019-04-03 15:53:57:259
-3.74,-0.52,6.93,-3.58,-1.12,-2.13,-0.07,0.21,0.22,5459,2019-04-03 15:53:57:264
2.54,1.65,8.04,2.66,1.73,-1.28,-0.01,-0.15,0.17,5464,2019-04-03 15:53:57:269
2.54,1.65,8.04,2.66,1.73,-1.28,-0.01,-0.15,0.17,5468,2019-04-03 15:53:57:273
2.54,1.65,8.04,2.66,1.73,-1.28,-0.01,-0.15,0.17,5474,2019-04-03 15:53:57:279
2.54,1.65,8.04,2.66,1.73,-1.28,-0.01,-0.15,0.17,5479,2019-04-03 15:53:57:284
0.63,-0.17,10.41,0.8,-0.4,0.87,-0.11,0.18,0.24,5484,2019-04-03 15:53:57:289
0.63,-0.17,10.41,0.8,-0.4,0.87,-0.11,0.18,0.24,5489,2019-04-03 15:53:57:294
0.63,-0.17,10.41,0.8,-0.4,0.87,-0.11,0.18,0.24,5495,2019-04-03 15:53:57:300
0.63,-0.17,10.41,0.8,-0.4,0.87,-0.11,0.18,0.24,5499,2019-04-03 15:53:57:304
-2.99,0.6,4.84,-2.8,0.08,-4.39,0.15,0.33,0.25,5505,2019-04-03 15:53:57:310
-2.99,0.6,4.84,-2.8,0.08,-4.39,0.15,0.33,0.25,5509,2019-04-03 15:53:57:314
-2.99,0.6,4.84,-2.8,0.08,-4.39,0.15,0.33,0.25,5514,2019-04-03 15:53:57:319
-2.99,0.6,4.84,-2.8,0.08,-4.39,0.15,0.33,0.25,5519,2019-04-03 15:53:57:324
-2.99,0.6,4.84,-2.8,0.08,-4.39,0.15,0.33,0.25,5524,2019-04-03 15:53:57:329
-2.99,0.6,4.84,-2.8,0.08,-4.39,0.15,0.33,0.25,5529,2019-04-03 15:53:57:334
-2.35,-0.55,12.44,-2.53,-1.01,3.07,0.04,0.07,0.19,5534,2019-04-03 15:53:57:339
-2.35,-0.55,12.44,-2.53,-1.01,3.07,0.04,0.07,0.19,5539,2019-04-03 15:53:57:344
-2.35,-0.55,12.44,-2.53,-1.01,3.07,-0.05,0.14,0.15,5544,2019-04-03 15:53:57:349
-2.35,-0.55,12.44,-2.53,-1.01,3.07,-0.05,0.14,0.15,5549,2019-04-03 15:53:57:354
-2.35,-0.55,12.44,-2.53,-1.01,3.07,-0.05,0.14,0.15,5554,2019-04-03 15:53:57:359
-2.35,-0.55,12.44,-2.53,-1.01,3.07,-0.05,0.14,0.15,5559,2019-04-03 15:53:57:364
-6.21,0.84,7.82,-5.97,0.37,-1.84,0.01,0.3,0.13,5565,2019-04-03 15:53:57:370
-6.21,0.84,7.82,-5.97,0.37,-1.84,0.01,0.3,0.13,5569,2019-04-03 15:53:57:374
-6.21,0.84,7.82,-5.97,0.37,-1.84,0.01,0.3,0.13,5574,2019-04-03 15:53:57:379
-6.21,0.84,7.82,-5.97,0.37,-1.84,0.01,0.3,0.13,5579,2019-04-03 15:53:57:384
-1.95,-3.52,10.52,-1.55,-3.75,0.69,-0.14,-0.09,0.01,5586,2019-04-03 15:53:57:391
-1.95,-3.52,10.52,-1.55,-3.75,0.69,-0.14,-0.09,0.01,5589,2019-04-03 15:53:57:394
-1.95,-3.52,10.52,-6.49,2.71,2.13,-0.02,0.25,0.13,5595,2019-04-03 15:53:57:400
-1.95,-3.52,10.52,-6.49,2.71,2.13,-0.02,0.25,0.13,5599,2019-04-03 15:53:57:404
-1.95,-3.52,10.52,-6.49,2.71,2.13,-0.02,0.25,0.13,5603,2019-04-03 15:53:57:408
-1.95,-3.52,10.52,-6.49,2.71,2.13,-0.02,0.25,0.13,5608,2019-04-03 15:53:57:413
3.49,6.08,20.99,-6.49,2.71,2.13,-0.02,0.25,0.13,5614,2019-04-03 15:53:57:419
3.49,6.08,20.99,-6.49,2.71,2.13,0.07,0.24,0.08,5620,2019-04-03 15:53:57:425
3.49,6.08,20.99,3.59,5.62,10.47,0.07,0.24,0.08,5624,2019-04-03 15:53:57:429
3.49,6.08,20.99,3.59,5.62,10.47,0.07,0.24,0.08,5629,2019-04-03 15:53:57:434
3.49,6.08,20.99,3.59,5.62,10.47,0.07,0.24,0.08,5634,2019-04-03 15:53:57:439
3.49,6.08,20.99,3.59,5.62,10.47,0.07,0.24,0.08,5639,2019-04-03 15:53:57:444
2.26,2.47,16.39,2.36,1.65,5.63,-0.03,0.14,0.12,5644,2019-04-03 15:53:57:449
2.26,2.47,16.39,2.36,1.65,5.63,-0.03,0.14,0.12,5650,2019-04-03 15:53:57:455
2.26,2.47,16.39,2.36,1.65,5.63,-0.03,0.14,0.12,5654,2019-04-03 15:53:57:459
2.26,2.47,16.39,2.36,1.65,5.63,-0.03,0.14,0.12,5659,2019-04-03 15:53:57:464
-1.4,0.73,9.0,-1.16,-0.04,-2.02,0.0,0.14,0.2,5664,2019-04-03 15:53:57:469
-1.4,0.73,9.0,-1.16,-0.04,-2.02,0.0,0.14,0.2,5670,2019-04-03 15:53:57:475
-1.4,0.73,9.0,-1.16,-0.04,-2.02,0.0,0.14,0.2,5674,2019-04-03 15:53:57:479
-1.4,0.73,9.0,-1.16,-0.04,-2.02,0.0,0.14,0.2,5679,2019-04-03 15:53:57:484
-0.85,-0.46,10.83,-0.77,-0.95,-0.11,-0.16,-0.09,0.22,5686,2019-04-03 15:53:57:491
-0.85,-0.46,10.83,-0.77,-0.95,-0.11,-0.16,-0.09,0.22,5689,2019-04-03 15:53:57:494
-0.85,-0.46,10.83,-0.77,-0.95,-0.11,-0.16,-0.09,0.22,5694,2019-04-03 15:53:57:499
-0.85,-0.46,10.83,-0.77,-0.95,-0.11,-0.16,-0.09,0.22,5699,2019-04-03 15:53:57:504
-2.9,3.12,9.09,-2.7,2.59,-2.01,0.06,0.04,0.34,5706,2019-04-03 15:53:57:511
-2.9,3.12,9.09,-2.7,2.59,-2.01,0.06,0.04,0.34,5709,2019-04-03 15:53:57:514
-2.9,3.12,9.09,-2.7,2.59,-2.01,0.06,0.04,0.34,5714,2019-04-03 15:53:57:519
-2.9,3.12,9.09,-2.7,2.59,-2.01,0.12,0.18,0.42,5718,2019-04-03 15:53:57:523
-2.9,3.12,9.09,-2.7,2.59,-2.01,0.12,0.18,0.42,5724,2019-04-03 15:53:57:529
-2.9,3.12,9.09,-2.7,2.59,-2.01,0.12,0.18,0.42,5729,2019-04-03 15:53:57:534
2.4,2.48,10.19,2.74,1.82,-0.42,0.04,-0.13,0.34,5733,2019-04-03 15:53:57:538
2.4,2.48,10.19,2.74,1.82,-0.42,0.04,-0.13,0.34,5739,2019-04-03 15:53:57:544
2.4,2.48,10.19,2.74,1.82,-0.42,0.04,-0.13,0.34,5746,2019-04-03 15:53:57:551
2.4,2.48,10.19,2.74,1.82,-0.42,0.04,-0.13,0.34,5749,2019-04-03 15:53:57:554
2.4,2.48,10.19,2.74,1.82,-0.42,0.04,-0.13,0.34,5754,2019-04-03 15:53:57:559
2.4,2.48,10.19,2.74,1.82,-0.42,0.04,-0.13,0.34,5759,2019-04-03 15:53:57:564
-1.84,5.19,11.15,-1.74,4.35,0.44,0.23,0.18,0.42,5764,2019-04-03 15:53:57:569
-1.84,5.19,11.15,-1.74,4.35,0.44,0.23,0.18,0.42,5769,2019-04-03 15:53:57:574
-0.99,1.27,5.96,-1.74,4.35,0.44,0.26,0.07,0.28,5774,2019-04-03 15:53:57:579
-0.99,1.27,5.96,-1.74,4.35,0.44,0.26,0.07,0.28,5779,2019-04-03 15:53:57:584
-0.99,1.27,5.96,-1.74,4.35,0.44,0.26,0.07,0.28,5784,2019-04-03 15:53:57:589
-0.49,0.59,7.22,0.06,-0.8,-3.47,0.17,0.07,0.34,5789,2019-04-03 15:53:57:594
-0.49,0.59,7.22,0.06,-0.8,-3.47,0.17,0.07,0.34,5794,2019-04-03 15:53:57:599
-0.49,0.59,7.22,0.06,-0.8,-3.47,0.17,0.07,0.34,5801,2019-04-03 15:53:57:606
-0.49,0.59,7.22,0.06,-0.8,-3.47,0.17,0.07,0.34,5805,2019-04-03 15:53:57:610
-0.49,0.59,7.22,0.06,-0.8,-3.47,0.17,0.07,0.34,5809,2019-04-03 15:53:57:614
-2.64,1.49,9.68,0.06,-0.8,-3.47,0.15,0.1,0.29,5814,2019-04-03 15:53:57:619
-2.64,1.49,9.68,-2.11,0.69,-0.45,0.15,0.1,0.29,5820,2019-04-03 15:53:57:625
-2.64,1.49,9.68,-2.11,0.69,-0.45,0.15,0.1,0.29,5823,2019-04-03 15:53:57:628
-3.82,-2.65,3.72,-3.27,-2.96,-6.1,-0.32,0.1,0.26,5829,2019-04-03 15:53:57:634
-3.82,-2.65,3.72,-3.27,-2.96,-6.1,-0.32,0.1,0.26,5837,2019-04-03 15:53:57:642
-3.82,-2.65,3.72,-3.27,-2.96,-6.1,-0.32,0.1,0.26,5839,2019-04-03 15:53:57:644
-3.82,-2.65,3.72,-3.27,-2.96,-6.1,-0.32,0.1,0.26,5846,2019-04-03 15:53:57:651
-3.82,-2.65,3.72,-3.27,-2.96,-6.1,-0.32,0.1,0.26,5849,2019-04-03 15:53:57:654
1.6,-0.88,9.22,1.98,-1.27,-0.24,0.11,-0.22,0.18,5854,2019-04-03 15:53:57:659
1.6,-0.88,9.22,1.98,-1.27,-0.24,0.11,-0.22,0.18,5859,2019-04-03 15:53:57:664
1.6,-0.88,9.22,1.98,-1.27,-0.24,0.11,-0.22,0.18,5865,2019-04-03 15:53:57:670
1.6,-0.88,9.22,1.98,-1.27,-0.24,0.11,-0.22,0.18,5869,2019-04-03 15:53:57:674
1.6,-0.88,9.22,1.98,-1.27,-0.24,0.11,-0.22,0.18,5874,2019-04-03 15:53:57:679
1.6,-0.88,9.22,1.98,-1.27,-0.24,0.11,-0.22,0.18,5879,2019-04-03 15:53:57:684
2.74,0.95,11.17,3.25,0.59,1.59,0.01,-0.18,0.17,5886,2019-04-03 15:53:57:691
2.74,0.95,11.17,3.25,0.59,1.59,0.01,-0.18,0.17,5889,2019-04-03 15:53:57:694
2.74,0.95,11.17,3.25,0.59,1.59,0.01,-0.18,0.17,5896,2019-04-03 15:53:57:701
2.74,0.95,11.17,3.25,0.59,1.59,0.01,-0.18,0.17,5899,2019-04-03 15:53:57:704
-5.6,1.2,11.4,-5.06,0.65,1.65,0.05,0.26,0.26,5904,2019-04-03 15:53:57:709
-5.6,1.2,11.4,-5.06,0.65,1.65,0.05,0.26,0.26,5909,2019-04-03 15:53:57:714
-5.6,1.2,11.4,-5.06,0.65,1.65,0.08,0.0,0.19,5914,2019-04-03 15:53:57:719
-5.6,1.2,11.4,-5.06,0.65,1.65,0.08,0.0,0.19,5920,2019-04-03 15:53:57:725
-5.6,1.2,11.4,-5.06,0.65,1.65,0.08,0.0,0.19,5924,2019-04-03 15:53:57:729
-5.6,1.2,11.4,-5.06,0.65,1.65,0.08,0.0,0.19,5929,2019-04-03 15:53:57:734
-0.74,-3.33,10.77,-0.34,-3.56,1.09,-0.04,-0.1,0.15,5935,2019-04-03 15:53:57:740
-0.74,-3.33,10.77,-0.34,-3.56,1.09,-0.04,-0.1,0.15,5939,2019-04-03 15:53:57:744
-0.74,-3.33,10.77,-0.34,-3.56,1.09,-0.04,-0.1,0.15,5944,2019-04-03 15:53:57:749
-0.74,-3.33,10.77,-0.34,-3.56,1.09,-0.04,-0.1,0.15,5949,2019-04-03 15:53:57:754
-0.74,-3.33,10.77,-0.34,-3.56,1.09,-0.04,-0.1,0.15,5954,2019-04-03 15:53:57:759
2.35,0.5,10.24,-0.34,-3.56,1.09,-0.04,-0.1,0.15,5959,2019-04-03 15:53:57:764
2.35,0.5,10.24,2.62,0.42,0.95,0.11,-0.21,0.05,5964,2019-04-03 15:53:57:769
2.35,0.5,10.24,2.62,0.42,0.95,0.11,-0.21,0.05,5968,2019-04-03 15:53:57:773
1.87,0.35,9.63,2.62,0.42,0.95,0.11,-0.19,0.04,5974,2019-04-03 15:53:57:779
1.87,0.35,9.63,2.62,0.42,0.95,0.11,-0.19,0.04,5980,2019-04-03 15:53:57:785
1.87,0.35,9.63,2.62,0.42,0.95,0.11,-0.19,0.04,5984,2019-04-03 15:53:57:789
1.87,0.35,9.63,2.62,0.42,0.95,0.11,-0.19,0.04,5989,2019-04-03 15:53:57:794
-3.25,-3.47,5.05,-2.77,-3.34,-4.09,-0.17,0.16,0.03,5994,2019-04-03 15:53:57:799
-3.25,-3.47,5.05,-2.77,-3.34,-4.09,-0.17,0.16,0.03,5999,2019-04-03 15:53:57:804
-3.25,-3.47,5.05,-2.77,-3.34,-4.09,-0.17,0.16,0.03,6006,2019-04-03 15:53:57:811
-3.25,-3.47,5.05,-2.77,-3.34,-4.09,-0.17,-0.01,-0.02,6009,2019-04-03 15:53:57:814
-0.13,0.65,8.21,0.18,0.51,-0.7,0.17,-0.01,-0.02,6015,2019-04-03 15:53:57:820
-0.13,0.65,8.21,0.18,0.51,-0.7,0.17,-0.01,-0.02,6019,2019-04-03 15:53:57:824
-0.13,0.65,8.21,0.18,0.51,-0.7,0.17,-0.01,-0.02,6024,2019-04-03 15:53:57:829
-0.13,0.65,8.21,0.18,0.51,-0.7,0.17,-0.01,-0.02,6030,2019-04-03 15:53:57:835
-0.13,0.65,8.21,0.18,0.51,-0.7,0.17,-0.01,-0.02,6033,2019-04-03 15:53:57:838
-1.04,-0.93,5.99,-0.99,-0.78,-2.88,0.14,-0.03,0.03,6039,2019-04-03 15:53:57:844
-1.04,-0.93,5.99,-0.99,-0.78,-2.88,0.14,-0.03,0.03,6046,2019-04-03 15:53:57:851
-1.04,-0.93,5.99,-0.99,-0.78,-2.88,0.14,-0.03,0.03,6050,2019-04-03 15:53:57:855
-1.04,-0.93,5.99,-0.99,-0.78,-2.88,0.14,-0.03,0.03,6054,2019-04-03 15:53:57:859
-1.04,-0.93,5.99,-0.99,-0.78,-2.88,0.14,-0.03,0.03,6058,2019-04-03 15:53:57:863
13.2,-0.87,14.53,13.11,-0.83,5.61,-0.17,-0.72,-0.09,6064,2019-04-03 15:53:57:869
13.2,-0.87,14.53,13.11,-0.83,5.61,-0.17,-0.72,-0.09,6069,2019-04-03 15:53:57:874
13.2,-0.87,14.53,13.11,-0.83,5.61,0.06,-0.66,0.18,6075,2019-04-03 15:53:57:880
13.2,-0.87,14.53,13.11,-0.83,5.61,0.06,-0.66,0.18,6079,2019-04-03 15:53:57:884
13.2,-0.87,14.53,13.11,-0.83,5.61,0.06,-0.66,0.18,6084,2019-04-03 15:53:57:889
13.2,-0.87,14.53,13.11,-0.83,5.61,0.06,-0.66,0.18,6089,2019-04-03 15:53:57:894
-0.93,-8.5,10.21,-1.61,-8.93,1.59,-0.47,0.21,0.46,6094,2019-04-03 15:53:57:899
-0.93,-8.5,10.21,-1.61,-8.93,1.59,-0.47,0.21,0.46,6101,2019-04-03 15:53:57:906
-0.93,-8.5,10.21,-1.61,-8.93,1.59,-0.47,0.21,0.46,6104,2019-04-03 15:53:57:909
4.71,2.5,8.36,3.98,1.86,0.21,0.35,-0.4,0.33,6109,2019-04-03 15:53:57:914
4.71,2.5,8.36,3.98,1.86,0.21,0.35,-0.4,0.33,6117,2019-04-03 15:53:57:922
-6.01,0.75,6.1,-6.36,0.3,-2.02,0.11,0.32,0.53,6131,2019-04-03 15:53:57:936
-6.01,0.75,6.1,-6.36,0.3,-2.02,0.11,0.32,0.53,6131,2019-04-03 15:53:57:936
-6.01,0.75,6.1,-6.36,0.3,-2.02,0.11,0.32,0.53,6132,2019-04-03 15:53:57:937
-6.01,0.75,6.1,-6.36,0.3,-2.02,0.11,0.32,0.53,6133,2019-04-03 15:53:57:938
-6.01,0.75,6.1,-6.36,0.3,-2.02,0.11,0.32,0.53,6141,2019-04-03 15:53:57:946
-6.01,0.75,6.1,-6.36,0.3,-2.02,0.11,0.32,0.53,6145,2019-04-03 15:53:57:950
-6.01,0.75,6.1,-6.36,0.3,-2.02,0.11,0.32,0.53,6149,2019-04-03 15:53:57:954
-1.83,-6.76,16.48,-2.24,-7.02,7.69,-0.44,-0.03,0.48,6154,2019-04-03 15:53:57:959
-1.83,-6.76,16.48,-2.24,-7.02,7.69,-0.44,-0.03,0.48,6159,2019-04-03 15:53:57:964
-1.83,-6.76,16.48,-2.24,-7.02,7.69,-0.44,-0.03,0.48,6164,2019-04-03 15:53:57:969
-1.83,-6.76,12.41,-2.24,-7.02,7.69,-0.44,-0.03,0.48,6170,2019-04-03 15:53:57:975
5.64,6.57,12.41,5.06,5.84,3.17,0.47,-0.27,0.38,6174,2019-04-03 15:53:57:979
5.64,6.57,12.41,5.06,5.84,3.17,0.47,-0.27,0.38,6179,2019-04-03 15:53:57:984
5.64,6.57,12.41,5.06,5.84,3.17,0.47,-0.27,0.38,6184,2019-04-03 15:53:57:989
5.64,6.57,12.41,5.06,5.84,3.17,0.47,-0.27,0.38,6189,2019-04-03 15:53:57:994
-5.78,-0.85,5.93,-6.08,-1.53,-3.48,0.07,0.46,0.49,6194,2019-04-03 15:53:57:999
-5.78,-0.85,5.93,-6.08,-1.53,-3.48,0.07,0.46,0.49,6200,2019-04-03 15:53:58:005
-5.78,-0.85,5.93,-6.08,-1.53,-3.48,0.07,0.46,0.49,6204,2019-04-03 15:53:58:009
-5.78,-0.85,5.93,-6.08,-1.53,-3.48,0.07,0.46,0.49,6209,2019-04-03 15:53:58:014
-1.53,-1.31,7.15,-1.96,-2.03,-2.23,-0.13,0.1,0.3,6218,2019-04-03 15:53:58:023
-1.53,-1.31,7.15,-1.96,-2.03,-2.23,-0.13,0.1,0.3,6219,2019-04-03 15:53:58:024
-1.53,-1.31,7.15,-1.96,-2.03,-2.23,-0.13,0.1,0.3,6224,2019-04-03 15:53:58:029
-1.53,-1.31,7.15,-1.96,-2.03,-2.23,-0.13,0.1,0.3,6230,2019-04-03 15:53:58:035
0.86,-0.82,12.32,0.71,-1.87,2.62,0.16,-0.12,0.18,6234,2019-04-03 15:53:58:039
0.86,-0.82,12.32,0.71,-1.87,2.62,0.16,-0.12,0.18,6239,2019-04-03 15:53:58:044
0.86,-0.82,12.32,0.71,-1.87,2.62,0.16,-0.12,0.18,6246,2019-04-03 15:53:58:051
0.86,-0.82,12.32,0.71,-1.87,2.62,0.16,-0.12,0.18,6249,2019-04-03 15:53:58:054
-0.65,-0.36,10.62,-0.37,-1.24,0.77,0.03,0.07,0.15,6255,2019-04-03 15:53:58:060
-0.65,-0.36,10.62,-0.37,-1.24,0.77,0.03,0.07,0.15,6259,2019-04-03 15:53:58:064
-0.65,-0.36,10.62,-0.37,-1.24,0.77,0.03,0.07,0.15,6264,2019-04-03 15:53:58:069
-5.01,-1.4,7.87,-0.37,-1.24,0.77,-0.1,0.28,0.15,6269,2019-04-03 15:53:58:074
-5.01,-1.4,7.87,-4.59,-1.19,-2.44,-0.1,0.28,0.15,6274,2019-04-03 15:53:58:079
-5.01,-1.4,7.87,-4.59,-1.19,-2.44,-0.1,0.28,0.15,6279,2019-04-03 15:53:58:084
-5.01,-1.4,7.87,-4.59,-1.19,-2.44,-0.1,0.28,0.15,6284,2019-04-03 15:53:58:089
-5.01,-1.4,7.87,-4.59,-1.19,-2.44,-0.1,0.28,0.15,6289,2019-04-03 15:53:58:094
-5.01,-1.4,7.87,-4.59,-1.19,-2.44,-0.1,0.28,0.15,6297,2019-04-03 15:53:58:102
-1.19,-0.41,10.7,-0.48,-0.49,0.61,-0.02,0.03,0.04,6300,2019-04-03 15:53:58:105
-1.19,-0.41,10.7,-0.48,-0.49,0.61,-0.02,0.03,0.04,6305,2019-04-03 15:53:58:110
-1.19,-0.41,10.7,-0.48,-0.49,0.61,-0.02,0.03,0.04,6310,2019-04-03 15:53:58:115
-1.19,-0.41,10.7,-0.48,-0.49,0.61,-0.02,0.03,0.04,6314,2019-04-03 15:53:58:119
4.06,-2.49,14.31,4.77,-2.37,3.65,-0.06,-0.19,0.0,6319,2019-04-03 15:53:58:124
4.06,-2.49,14.31,4.77,-2.37,3.65,-0.06,-0.19,0.0,6324,2019-04-03 15:53:58:129
4.06,-2.49,14.31,4.77,-2.37,3.65,-0.06,-0.19,0.0,6331,2019-04-03 15:53:58:136
-7.64,-0.13,8.81,-6.81,0.01,-1.97,0.11,0.38,0.04,6336,2019-04-03 15:53:58:141
-7.64,-0.13,8.81,-6.81,0.01,-1.97,0.11,0.38,0.04,6340,2019-04-03 15:53:58:145
-7.64,-0.13,8.81,-6.81,0.01,-1.97,0.11,0.38,0.04,6344,2019-04-03 15:53:58:149
-7.64,-0.13,8.81,-6.81,0.01,-1.97,0.11,0.38,0.04,6349,2019-04-03 15:53:58:154
4.24,-1.78,12.75,4.94,-1.73,2.24,-0.17,-0.37,-0.2,6354,2019-04-03 15:53:58:159
4.24,-1.78,12.75,4.94,-1.73,2.24,-0.17,-0.37,-0.2,6359,2019-04-03 15:53:58:164
4.24,-1.78,12.75,4.94,-1.73,2.24,-0.17,-0.37,-0.2,6364,2019-04-03 15:53:58:169
4.24,-1.78,12.75,4.94,-1.73,2.24,-0.17,-0.37,-0.2,6369,2019-04-03 15:53:58:174
1.23,1.71,10.0,2.13,2.16,-0.16,0.12,-0.06,-0.13,6375,2019-04-03 15:53:58:180
1.23,1.71,10.0,2.13,2.16,-0.16,0.12,-0.06,-0.13,6381,2019-04-03 15:53:58:186
1.23,1.71,10.0,2.13,2.16,-0.16,0.12,-0.06,-0.13,6384,2019-04-03 15:53:58:189
-2.58,1.2,8.71,2.13,2.16,-0.16,-0.03,0.2,-0.1,6389,2019-04-03 15:53:58:194
-2.58,1.2,8.71,-1.95,1.45,-1.51,-0.03,0.2,-0.1,6394,2019-04-03 15:53:58:199
-2.58,1.2,8.71,-1.95,1.45,-1.51,-0.03,0.2,-0.1,6399,2019-04-03 15:53:58:204
-2.58,1.2,8.71,-1.95,1.45,-1.51,-0.03,0.2,-0.1,6404,2019-04-03 15:53:58:209
-2.58,1.2,8.71,-1.95,1.45,-1.51,-0.03,0.2,-0.1,6409,2019-04-03 15:53:58:214
-1.52,1.55,8.26,-0.79,1.72,-2.09,-0.12,0.01,-0.07,6415,2019-04-03 15:53:58:220
-1.52,1.55,8.26,-0.79,1.72,-2.09,-0.12,0.01,-0.07,6419,2019-04-03 15:53:58:224
-1.52,1.55,8.26,-0.79,1.72,-2.09,-0.12,0.01,-0.07,6424,2019-04-03 15:53:58:229
-1.52,1.55,8.26,-0.79,1.72,-2.09,-0.12,0.01,-0.07,6429,2019-04-03 15:53:58:234
0.06,2.1,9.69,0.68,2.01,-0.46,-0.01,-0.05,-0.03,6435,2019-04-03 15:53:58:240
0.06,2.1,9.69,0.68,2.01,-0.46,-0.01,-0.05,-0.03,6439,2019-04-03 15:53:58:244
0.06,2.1,9.69,0.68,2.01,-0.46,-0.01,-0.05,-0.03,6446,2019-04-03 15:53:58:251
0.06,2.1,9.69,0.68,2.01,-0.46,-0.01,-0.05,-0.03,6449,2019-04-03 15:53:58:254
-0.06,5.52,8.2,0.34,4.88,-1.72,0.07,-0.01,0.01,6454,2019-04-03 15:53:58:259
-0.06,5.52,8.2,0.34,4.88,-1.72,0.07,-0.01,0.01,6459,2019-04-03 15:53:58:264
-0.06,5.52,8.2,0.34,4.88,-1.72,0.07,-0.01,0.01,6466,2019-04-03 15:53:58:271
-0.06,5.52,8.2,0.34,4.88,-1.72,0.07,-0.01,0.01,6469,2019-04-03 15:53:58:274
-3.32,5.33,8.8,-3.14,4.23,-1.18,0.06,0.13,0.13,6475,2019-04-03 15:53:58:280
-3.32,5.33,8.8,-3.14,4.23,-1.18,0.06,0.13,0.13,6479,2019-04-03 15:53:58:284
-3.32,5.33,8.8,-3.14,4.23,-1.18,0.06,0.13,0.13,6484,2019-04-03 15:53:58:289
-3.32,5.33,8.8,-3.14,4.23,-1.18,0.06,0.13,0.13,6489,2019-04-03 15:53:58:294
-3.32,5.33,8.8,-3.14,4.23,-1.18,0.06,0.13,0.13,6493,2019-04-03 15:53:58:298
-3.32,6.28,5.18,-3.14,4.23,-1.18,0.06,0.13,0.13,6499,2019-04-03 15:53:58:304
1.23,6.28,5.18,1.18,4.7,-4.45,-0.09,-0.15,0.1,6504,2019-04-03 15:53:58:309
1.23,6.28,5.18,1.18,4.7,-4.45,-0.09,-0.15,0.1,6509,2019-04-03 15:53:58:314
1.23,6.28,5.18,1.18,4.7,-4.45,-0.09,-0.15,0.1,6515,2019-04-03 15:53:58:320
1.23,6.28,5.18,1.18,4.7,-4.45,-0.09,-0.15,0.1,6519,2019-04-03 15:53:58:324
9.71,-1.19,12.71,9.15,-2.79,2.91,0.34,0.33,0.18,6524,2019-04-03 15:53:58:329
9.71,-1.19,12.71,9.15,-2.79,2.91,0.34,0.33,0.18,6528,2019-04-03 15:53:58:333
9.71,-1.19,12.71,9.15,-2.79,2.91,0.34,0.33,0.18,6535,2019-04-03 15:53:58:340
-0.88,4.49,9.24,-0.97,2.48,0.0,-0.19,0.21,0.2,6539,2019-04-03 15:53:58:344
-0.88,4.49,9.24,-0.97,2.48,0.0,-0.19,0.21,0.2,6544,2019-04-03 15:53:58:349
-0.88,4.49,9.24,-0.97,2.48,0.0,-0.19,0.21,0.2,6549,2019-04-03 15:53:58:354
-0.88,4.49,9.24,-0.97,2.48,0.0,-0.19,0.21,0.2,6553,2019-04-03 15:53:58:358
-0.88,4.49,9.24,-0.97,2.48,0.0,-0.19,0.21,0.2,6558,2019-04-03 15:53:58:363
-4.42,-4.49,8.24,-0.97,2.48,0.0,0.07,-0.63,0.06,6564,2019-04-03 15:53:58:369
-4.42,-4.49,8.24,-5.32,-6.21,-1.02,0.07,-0.63,0.06,6569,2019-04-03 15:53:58:374
-4.42,-4.49,8.24,-5.32,-6.21,-1.02,0.07,-0.63,0.06,6574,2019-04-03 15:53:58:379
-4.42,-4.49,8.24,-5.32,-6.21,-1.02,0.07,-0.63,0.06,6579,2019-04-03 15:53:58:384
6.98,-1.15,15.72,5.97,-2.99,6.49,0.26,0.2,0.22,6584,2019-04-03 15:53:58:389
6.98,-1.15,15.72,5.97,-2.99,6.49,0.26,0.2,0.22,6589,2019-04-03 15:53:58:394
6.98,-1.15,15.72,5.97,-2.99,6.49,0.24,0.08,0.18,6596,2019-04-03 15:53:58:401
6.98,-1.15,15.72,5.97,-2.99,6.49,0.24,0.08,0.18,6599,2019-04-03 15:53:58:404
6.98,-1.15,15.72,5.97,-2.99,6.49,0.24,0.08,0.18,6604,2019-04-03 15:53:58:409
6.98,-1.15,15.72,5.97,-2.99,6.49,0.24,0.08,0.18,6608,2019-04-03 15:53:58:413
-1.25,0.49,10.04,-1.89,-1.14,0.91,0.1,-0.25,0.11,6614,2019-04-03 15:53:58:419
-1.25,0.49,10.04,-1.89,-1.14,0.91,0.1,-0.25,0.11,6619,2019-04-03 15:53:58:424
-1.25,0.49,10.04,-1.89,-1.14,0.91,0.1,-0.25,0.11,6624,2019-04-03 15:53:58:429
-1.25,0.49,10.04,-1.89,-1.14,0.91,0.1,-0.25,0.11,6629,2019-04-03 15:53:58:434
1.4,5.37,16.11,0.61,3.62,6.21,0.14,-0.09,0.14,6636,2019-04-03 15:53:58:441
1.4,5.37,16.11,0.61,3.62,6.21,0.14,-0.09,0.14,6640,2019-04-03 15:53:58:445
1.4,5.37,16.11,0.61,3.62,6.21,0.14,-0.09,0.14,6644,2019-04-03 15:53:58:449
1.4,5.37,16.11,0.61,3.62,6.21,0.14,-0.09,0.14,6652,2019-04-03 15:53:58:457
1.4,5.37,16.11,0.61,3.62,6.21,0.14,-0.09,0.14,6654,2019-04-03 15:53:58:459
1.4,5.37,16.11,0.61,3.62,6.21,0.14,-0.09,0.14,6659,2019-04-03 15:53:58:464
13.11,1.46,17.59,12.22,-0.18,7.0,0.04,0.47,0.28,6664,2019-04-03 15:53:58:469
13.11,1.46,17.59,12.22,-0.18,7.0,0.0,0.25,0.26,6669,2019-04-03 15:53:58:474
13.11,1.46,17.59,12.22,-0.18,7.0,0.0,0.25,0.26,6674,2019-04-03 15:53:58:479
13.11,1.46,17.59,12.22,-0.18,7.0,0.0,0.25,0.26,6679,2019-04-03 15:53:58:484
13.11,1.46,17.59,12.22,-0.18,7.0,0.0,0.25,0.26,6684,2019-04-03 15:53:58:489
13.11,1.46,17.59,12.22,-0.18,7.0,0.0,0.25,0.26,6688,2019-04-03 15:53:58:493
13.11,1.46,17.59,12.22,-0.18,7.0,0.0,0.25,0.26,6695,2019-04-03 15:53:58:500
13.11,1.46,17.59,12.22,-0.18,7.0,0.0,0.25,0.26,6700,2019-04-03 15:53:58:505
-3.16,-0.83,13.77,-3.5,-1.39,2.81,0.05,-0.67,0.01,6707,2019-04-03 15:53:58:512
-3.16,-0.83,13.77,-3.5,-1.39,2.81,0.05,-0.67,0.01,6708,2019-04-03 15:53:58:513
-3.16,-0.83,13.77,-4.08,-3.99,2.59,0.05,-0.67,0.01,6716,2019-04-03 15:53:58:521
-3.16,-0.83,13.77,-4.08,-3.99,2.59,0.05,-0.67,0.01,6719,2019-04-03 15:53:58:524
-3.16,-0.83,13.77,-4.08,-3.99,2.59,0.05,-0.67,0.01,6724,2019-04-03 15:53:58:529
-3.16,-0.83,13.77,-4.08,-3.99,2.59,0.05,-0.67,0.01,6729,2019-04-03 15:53:58:534
-3.16,-0.83,13.77,-4.08,-3.99,2.59,0.05,-0.67,0.01,6735,2019-04-03 15:53:58:540
-3.16,-0.83,13.77,-4.08,-3.99,2.59,0.05,-0.67,0.01,6738,2019-04-03 15:53:58:543
-0.68,0.08,10.66,-0.51,0.07,-0.98,-0.14,0.12,0.13,6748,2019-04-03 15:53:58:553
-0.68,0.08,10.66,-0.51,0.07,-0.98,-0.14,0.12,0.13,6753,2019-04-03 15:53:58:558
-0.68,0.08,10.66,-0.51,0.07,-0.98,-0.14,0.12,0.13,6754,2019-04-03 15:53:58:559
-0.93,-0.84,9.58,-1.18,-0.68,-2.52,-0.07,0.05,0.07,6759,2019-04-03 15:53:58:564
-0.93,-0.84,9.58,-1.18,-0.68,-2.52,-0.07,0.05,0.07,6764,2019-04-03 15:53:58:569
1.64,3.95,9.88,2.32,3.48,-1.79,0.0,-0.03,-0.03,6770,2019-04-03 15:53:58:575
1.64,3.95,9.88,2.32,3.48,-1.79,0.0,-0.03,-0.03,6774,2019-04-03 15:53:58:579
1.64,3.95,9.88,2.32,3.48,-1.79,0.0,-0.03,-0.03,6780,2019-04-03 15:53:58:585
1.64,3.95,9.88,2.32,3.48,-1.79,0.0,-0.03,-0.03,6783,2019-04-03 15:53:58:588
1.64,3.95,9.88,2.32,3.48,-1.79,0.0,-0.03,-0.03,6789,2019-04-03 15:53:58:594
-2.84,-3.38,5.6,-2.42,-3.73,-5.83,0.02,-0.08,-0.07,6794,2019-04-03 15:53:58:599
-2.84,-3.38,5.6,-2.42,-3.73,-5.83,0.02,-0.08,-0.07,6801,2019-04-03 15:53:58:606
-2.84,-3.38,5.6,-2.42,-3.73,-5.83,0.02,-0.08,-0.07,6805,2019-04-03 15:53:58:610
-2.84,-3.38,5.6,-2.42,-3.73,-5.83,0.02,-0.08,-0.07,6809,2019-04-03 15:53:58:614
-3.99,-1.04,3.35,-3.61,-1.09,-7.63,0.13,-0.24,-0.18,6815,2019-04-03 15:53:58:620
-3.99,-1.04,3.35,-3.61,-1.09,-7.63,0.13,-0.24,-0.18,6819,2019-04-03 15:53:58:624
-3.99,-1.04,3.35,-3.61,-1.09,-7.63,0.13,-0.24,-0.18,6824,2019-04-03 15:53:58:629
-3.99,-1.04,3.35,-3.61,-1.09,-7.63,0.13,-0.24,-0.18,6829,2019-04-03 15:53:58:634
7.37,2.08,16.13,7.49,2.16,5.75,0.09,0.08,-0.13,6836,2019-04-03 15:53:58:641
7.37,2.08,16.13,7.49,2.16,5.75,0.09,0.08,-0.13,6839,2019-04-03 15:53:58:644
7.37,2.08,16.13,7.49,2.16,5.75,0.09,0.08,-0.13,6844,2019-04-03 15:53:58:649
2.14,0.81,12.21,7.49,2.16,5.75,-0.1,0.46,-0.01,6849,2019-04-03 15:53:58:654
2.14,0.81,12.21,2.77,1.09,2.36,-0.1,0.46,-0.01,6854,2019-04-03 15:53:58:659
2.14,0.81,12.21,2.77,1.09,2.36,-0.1,0.46,-0.01,6858,2019-04-03 15:53:58:663
2.14,0.81,12.21,2.77,1.09,2.36,-0.1,0.46,-0.01,6866,2019-04-03 15:53:58:671
2.14,0.81,12.21,2.77,1.09,2.36,-0.1,0.46,-0.01,6869,2019-04-03 15:53:58:674
2.14,0.81,12.21,2.77,1.09,2.36,-0.1,0.46,-0.01,6875,2019-04-03 15:53:58:680
2.14,0.81,12.21,2.77,1.09,2.36,-0.1,0.46,-0.01,6878,2019-04-03 15:53:58:683
-3.29,5.15,11.05,-3.31,4.67,0.79,0.3,-0.42,-0.1,6884,2019-04-03 15:53:58:689
-3.29,5.15,11.05,-3.31,4.67,0.79,-0.4,-0.1,0.03,6890,2019-04-03 15:53:58:695
-3.29,5.15,11.05,-3.12,1.1,-0.38,-0.4,-0.1,0.03,6894,2019-04-03 15:53:58:699
-3.29,5.15,11.05,-3.12,1.1,-0.38,-0.4,-0.1,0.03,6901,2019-04-03 15:53:58:706
-3.29,5.15,11.05,-3.12,1.1,-0.38,-0.4,-0.1,0.03,6904,2019-04-03 15:53:58:709
-3.29,5.15,11.05,-3.12,1.1,-0.38,-0.4,-0.1,0.03,6909,2019-04-03 15:53:58:714
-0.3,-4.25,11.67,-0.14,-4.74,1.33,0.18,0.27,0.12,6915,2019-04-03 15:53:58:720
-0.3,-4.25,11.67,-0.14,-4.74,1.33,0.18,0.27,0.12,6918,2019-04-03 15:53:58:723
-0.3,-4.25,11.67,-0.14,-4.74,1.33,0.18,0.27,0.12,6925,2019-04-03 15:53:58:730
-0.3,-4.25,11.67,-0.14,-4.74,1.33,0.18,0.27,0.12,6929,2019-04-03 15:53:58:734
-5.08,1.41,5.85,-5.06,0.51,-4.12,0.27,-0.16,0.04,6935,2019-04-03 15:53:58:740
-5.08,1.41,5.85,-5.06,0.51,-4.12,0.27,-0.16,0.04,6938,2019-04-03 15:53:58:743
-5.08,1.41,5.85,-5.06,0.51,-4.12,0.27,-0.16,0.04,6945,2019-04-03 15:53:58:750
-5.08,1.41,5.85,-5.06,0.51,-4.12,0.27,-0.16,0.04,6948,2019-04-03 15:53:58:753
-1.1,-0.34,9.45,-1.4,-0.97,-0.62,-0.19,-0.15,0.0,6956,2019-04-03 15:53:58:761
-1.1,-0.34,9.45,-1.4,-0.97,-0.62,-0.19,-0.15,0.0,6958,2019-04-03 15:53:58:763
-1.1,-0.34,9.45,-1.4,-0.97,-0.62,-0.19,-0.15,0.0,6965,2019-04-03 15:53:58:770
-1.1,-0.34,9.45,-1.4,-0.97,-0.62,-0.19,-0.15,0.0,6969,2019-04-03 15:53:58:774
3.02,0.04,11.1,2.77,-0.59,1.04,0.08,0.27,0.04,6976,2019-04-03 15:53:58:781
3.02,0.04,11.1,2.77,-0.59,1.04,0.08,0.27,0.04,6982,2019-04-03 15:53:58:787
3.02,0.04,11.1,2.77,-0.59,1.04,0.08,0.27,0.04,6984,2019-04-03 15:53:58:789
3.02,0.04,11.1,2.77,-0.59,1.04,0.08,0.27,0.04,6989,2019-04-03 15:53:58:794
-4.17,0.53,11.79,-4.39,-0.48,1.38,0.04,0.06,0.0,6996,2019-04-03 15:53:58:801
-4.17,0.53,11.79,-4.39,-0.48,1.38,0.04,0.06,0.0,7001,2019-04-03 15:53:58:806
-4.17,0.53,11.79,-4.39,-0.48,1.38,0.04,0.06,0.0,7004,2019-04-03 15:53:58:809
-4.17,0.53,11.79,-0.27,0.28,-1.27,-0.29,-0.08,0.0,7009,2019-04-03 15:53:58:814
0.04,1.48,9.76,-0.27,0.28,-1.27,-0.29,-0.08,0.0,7014,2019-04-03 15:53:58:819
0.04,1.48,9.76,-0.27,0.28,-1.27,-0.29,-0.08,0.0,7021,2019-04-03 15:53:58:826
0.04,1.48,9.76,-0.27,0.28,-1.27,-0.29,-0.08,0.0,7024,2019-04-03 15:53:58:829
0.04,1.48,9.76,-0.27,0.28,-1.27,-0.29,-0.08,0.0,7029,2019-04-03 15:53:58:834
-0.51,-1.93,14.79,-0.34,-2.8,3.4,-0.08,0.14,-0.01,7034,2019-04-03 15:53:58:839
-0.51,-1.93,14.79,-0.34,-2.8,3.4,-0.08,0.14,-0.01,7041,2019-04-03 15:53:58:846
-0.51,-1.93,14.79,-0.34,-2.8,3.4,-0.08,0.14,-0.01,7044,2019-04-03 15:53:58:849
-0.51,-1.93,14.79,-0.34,-2.8,3.4,0.0,0.1,-0.06,7049,2019-04-03 15:53:58:854
-1.8,1.31,12.3,-1.81,0.33,0.69,0.0,0.1,-0.06,7055,2019-04-03 15:53:58:860
-1.8,1.31,12.3,-1.81,0.33,0.69,0.0,0.1,-0.06,7060,2019-04-03 15:53:58:865
-1.8,1.31,12.3,-1.81,0.33,0.69,0.0,0.1,-0.06,7064,2019-04-03 15:53:58:869
-1.8,1.31,12.3,-1.81,0.33,0.69,0.0,0.1,-0.06,7069,2019-04-03 15:53:58:874
-2.59,1.21,10.87,-2.52,0.97,-0.75,-0.29,0.0,-0.09,7074,2019-04-03 15:53:58:879
-2.59,1.21,10.87,-2.52,0.97,-0.75,-0.29,0.0,-0.09,7079,2019-04-03 15:53:58:884
-2.59,1.21,10.87,-2.52,0.97,-0.75,-0.29,0.0,-0.09,7085,2019-04-03 15:53:58:890
-2.59,1.21,10.87,-2.52,0.97,-0.75,-0.29,0.0,-0.09,7088,2019-04-03 15:53:58:893
1.78,-1.24,9.43,2.1,-1.49,-1.67,0.06,0.17,-0.1,7095,2019-04-03 15:53:58:900
1.78,-1.24,9.43,2.1,-1.49,-1.67,0.06,0.17,-0.1,7099,2019-04-03 15:53:58:904
1.78,-1.24,9.43,2.1,-1.49,-1.67,0.06,0.17,-0.1,7104,2019-04-03 15:53:58:909
1.78,-1.24,9.43,2.1,-1.49,-1.67,0.06,0.17,-0.1,7108,2019-04-03 15:53:58:913
1.78,-1.24,9.43,2.1,-1.49,-1.67,0.06,0.17,-0.1,7116,2019-04-03 15:53:58:921
1.96,4.31,5.45,1.79,3.73,-5.03,-0.06,-0.01,-0.14,7120,2019-04-03 15:53:58:925
1.96,4.31,5.45,1.79,3.73,-5.03,-0.06,-0.01,-0.14,7124,2019-04-03 15:53:58:929
1.96,4.31,5.45,1.79,3.73,-5.03,-0.06,-0.01,-0.14,7129,2019-04-03 15:53:58:934
1.96,4.31,5.45,1.79,3.73,-5.03,0.05,0.25,-0.03,7135,2019-04-03 15:53:58:940
1.96,4.31,5.45,1.79,3.73,-5.03,0.05,0.25,-0.03,7139,2019-04-03 15:53:58:944
1.96,4.31,5.45,1.79,3.73,-5.03,0.05,0.25,-0.03,7144,2019-04-03 15:53:58:949
0.8,4.72,8.99,0.67,3.92,-1.38,0.15,-0.16,-0.1,7149,2019-04-03 15:53:58:954
0.8,4.72,8.99,0.67,3.92,-1.38,0.15,-0.16,-0.1,7154,2019-04-03 15:53:58:959
0.8,4.72,8.99,0.67,3.92,-1.38,0.15,-0.16,-0.1,7160,2019-04-03 15:53:58:965
0.31,5.32,15.03,0.47,4.31,4.03,-0.23,0.18,0.05,7170,2019-04-03 15:53:58:975
0.31,5.32,15.03,0.47,4.31,4.03,-0.23,0.18,0.05,7176,2019-04-03 15:53:58:981
0.31,5.32,15.03,0.47,4.31,4.03,-0.23,0.18,0.05,7177,2019-04-03 15:53:58:982
0.31,5.32,15.03,0.47,4.31,4.03,-0.23,0.18,0.05,7179,2019-04-03 15:53:58:984
0.31,5.32,15.03,0.47,4.31,4.03,-0.23,0.18,0.05,7185,2019-04-03 15:53:58:990
0.31,5.32,15.03,0.47,4.31,4.03,-0.23,0.18,0.05,7189,2019-04-03 15:53:58:994
-4.08,0.54,10.05,-3.89,-0.52,-1.06,0.11,-0.11,0.0,7194,2019-04-03 15:53:58:999
-4.08,0.54,10.05,-3.89,-0.52,-1.06,0.11,-0.11,0.0,7200,2019-04-03 15:53:59:005
-4.08,0.54,10.05,-3.89,-0.52,-1.06,0.11,-0.11,0.0,7204,2019-04-03 15:53:59:009
-4.08,0.54,10.05,-3.89,-0.52,-1.06,0.11,-0.11,0.0,7208,2019-04-03 15:53:59:013
-2.63,0.59,9.01,-2.24,-0.56,-2.01,0.07,-0.16,-0.04,7214,2019-04-03 15:53:59:019
-2.63,0.59,9.01,-2.24,-0.56,-2.01,0.07,-0.16,-0.04,7219,2019-04-03 15:53:59:024
-2.63,0.59,9.01,-2.24,-0.56,-2.01,0.07,-0.16,-0.04,7226,2019-04-03 15:53:59:031
-2.63,0.59,9.01,-2.24,-0.56,-2.01,0.07,-0.16,-0.04,7229,2019-04-03 15:53:59:034
3.88,-0.75,9.91,4.3,-1.85,-0.66,-0.14,0.17,-0.07,7233,2019-04-03 15:53:59:038
3.88,-0.75,9.91,4.3,-1.85,-0.66,-0.14,0.17,-0.07,7239,2019-04-03 15:53:59:044
3.88,-0.75,9.91,4.3,-1.85,-0.66,-0.14,0.17,-0.07,7244,2019-04-03 15:53:59:049
0.07,-3.58,6.23,4.3,-1.85,-0.66,0.02,0.08,-0.16,7249,2019-04-03 15:53:59:054
0.07,-3.58,6.23,0.44,-4.26,-3.71,0.02,0.08,-0.16,7253,2019-04-03 15:53:59:058
0.07,-3.58,6.23,0.44,-4.26,-3.71,0.02,0.08,-0.16,7261,2019-04-03 15:53:59:066
-7.32,0.71,6.15,4.72,-5.47,-5.67,-0.09,-0.14,-0.23,7266,2019-04-03 15:53:59:071
-7.32,0.71,6.15,4.72,-5.47,-5.67,-0.09,-0.14,-0.23,7269,2019-04-03 15:53:59:074
-7.32,0.71,6.15,4.72,-5.47,-5.67,-0.09,-0.14,-0.23,7274,2019-04-03 15:53:59:079
-7.32,0.71,6.15,4.72,-5.47,-5.67,-0.09,-0.14,-0.23,7279,2019-04-03 15:53:59:084
-7.32,0.71,6.15,-7.13,0.5,-2.85,-0.09,-0.14,-0.23,7286,2019-04-03 15:53:59:091
-7.32,0.71,6.15,-7.13,0.5,-2.85,-0.09,-0.14,-0.23,7292,2019-04-03 15:53:59:097
-7.32,0.71,6.15,-7.13,0.5,-2.85,-0.09,-0.14,-0.23,7294,2019-04-03 15:53:59:099
-7.32,0.71,6.15,-7.13,0.5,-2.85,-0.09,-0.14,-0.23,7300,2019-04-03 15:53:59:105
2.79,3.94,11.52,2.96,3.46,2.41,0.11,0.33,-0.08,7319,2019-04-03 15:53:59:124
2.79,3.94,11.52,2.96,3.46,2.41,0.11,0.33,-0.08,7320,2019-04-03 15:53:59:125
2.79,3.94,11.52,2.96,3.46,2.41,0.11,0.33,-0.08,7320,2019-04-03 15:53:59:125
2.79,3.94,11.52,2.96,3.46,2.41,0.11,0.33,-0.08,7321,2019-04-03 15:53:59:126
2.79,3.94,11.52,2.96,3.46,2.41,0.11,0.33,-0.08,7329,2019-04-03 15:53:59:134
2.53,-0.56,10.54,2.96,3.46,2.41,0.11,0.33,-0.08,7330,2019-04-03 15:53:59:135
2.53,-0.56,10.54,2.69,-1.6,0.33,0.12,-0.21,-0.18,7334,2019-04-03 15:53:59:139
2.53,-0.56,10.54,2.69,-1.6,0.33,0.12,-0.21,-0.18,7339,2019-04-03 15:53:59:144
1.51,-0.13,8.47,-2.79,-2.33,-3.13,-0.06,0.17,-0.1,7344,2019-04-03 15:53:59:149
1.51,-0.13,8.47,-2.79,-2.33,-3.13,-0.06,0.17,-0.1,7350,2019-04-03 15:53:59:155
1.51,-0.13,8.47,-2.79,-2.33,-3.13,-0.06,0.17,-0.1,7354,2019-04-03 15:53:59:159
1.51,-0.13,8.47,-2.79,-2.33,-3.13,-0.06,0.17,-0.1,7359,2019-04-03 15:53:59:164
6.28,-0.71,10.16,6.27,-0.69,0.97,-0.11,0.1,-0.15,7364,2019-04-03 15:53:59:169
6.28,-0.71,10.16,6.27,-0.69,0.97,-0.11,0.1,-0.15,7368,2019-04-03 15:53:59:173
6.28,-0.71,10.16,6.27,-0.69,0.97,-0.11,0.1,-0.15,7375,2019-04-03 15:53:59:180
6.28,-0.71,10.16,6.27,-0.69,0.97,-0.11,0.1,-0.15,7379,2019-04-03 15:53:59:184
1.47,0.1,9.92,1.34,0.26,1.17,0.15,0.11,-0.15,7384,2019-04-03 15:53:59:189
1.47,0.1,9.92,1.34,0.26,1.17,0.15,0.11,-0.15,7389,2019-04-03 15:53:59:194
1.47,0.1,9.92,1.34,0.26,1.17,0.15,0.11,-0.15,7394,2019-04-03 15:53:59:199
-1.55,1.25,2.54,1.34,0.26,1.17,-0.19,-0.28,-0.18,7399,2019-04-03 15:53:59:204
-1.55,1.25,2.54,1.34,0.26,1.17,-0.19,-0.28,-0.18,7404,2019-04-03 15:53:59:209
-1.55,1.25,2.54,-1.93,1.53,-5.84,-0.19,-0.28,-0.18,7410,2019-04-03 15:53:59:215
-1.55,1.25,2.54,-1.93,1.53,-5.84,-0.19,-0.28,-0.18,7417,2019-04-03 15:53:59:222
-1.86,0.6,7.27,-2.38,0.54,-0.89,0.06,-0.1,-0.11,7418,2019-04-03 15:53:59:223
-1.86,0.6,7.27,-2.38,0.54,-0.89,0.06,-0.1,-0.11,7434,2019-04-03 15:53:59:239
-1.86,0.6,7.27,-2.38,0.54,-0.89,0.06,-0.1,-0.11,7435,2019-04-03 15:53:59:240
-1.86,0.6,7.27,-2.38,0.54,-0.89,0.06,-0.1,-0.11,7435,2019-04-03 15:53:59:240
-1.86,0.6,7.27,-2.38,0.54,-0.89,0.06,-0.1,-0.11,7439,2019-04-03 15:53:59:244
-1.86,0.6,7.27,-2.38,0.54,-0.89,0.06,-0.1,-0.11,7445,2019-04-03 15:53:59:250
-1.86,0.6,7.27,-2.38,0.54,-0.89,0.06,-0.1,-0.11,7449,2019-04-03 15:53:59:254
1.88,-0.98,12.87,0.93,-1.15,4.04,-0.06,-0.06,-0.13,7455,2019-04-03 15:53:59:260
1.88,-0.98,12.87,0.93,-1.15,4.04,-0.06,-0.06,-0.13,7459,2019-04-03 15:53:59:264
1.88,-0.98,12.87,0.93,-1.15,4.04,-0.06,-0.06,-0.13,7464,2019-04-03 15:53:59:269
-4.06,-0.02,8.26,-4.97,-0.73,-1.1,-0.01,-0.45,-0.1,7469,2019-04-03 15:53:59:274
-4.06,-0.02,8.26,-4.97,-0.73,-1.1,-0.01,-0.45,-0.1,7474,2019-04-03 15:53:59:279
-4.06,-0.02,8.26,-4.97,-0.73,-1.1,-0.01,-0.45,-0.1,7479,2019-04-03 15:53:59:284
-4.42,-0.28,5.49,-4.96,-0.77,-3.57,-0.07,0.13,0.0,7486,2019-04-03 15:53:59:291
-4.42,-0.28,5.49,-4.96,-0.77,-3.57,-0.07,0.13,0.0,7491,2019-04-03 15:53:59:296
-4.42,-0.28,5.49,-4.96,-0.77,-3.57,-0.07,0.13,0.0,7494,2019-04-03 15:53:59:299
-4.42,-0.28,5.49,-4.96,-0.77,-3.57,-0.07,0.13,0.0,7499,2019-04-03 15:53:59:304
-8.72,-1.64,4.02,-9.53,-1.53,-4.63,-0.06,-0.68,-0.11,7505,2019-04-03 15:53:59:310
-8.72,-1.64,4.02,-9.53,-1.53,-4.63,-0.06,-0.68,-0.11,7509,2019-04-03 15:53:59:314
-8.72,-1.64,4.02,-9.53,-1.53,-4.63,-0.06,-0.68,-0.11,7513,2019-04-03 15:53:59:318
-8.72,-1.64,4.02,-9.53,-1.53,-4.63,-0.06,-0.68,-0.11,7518,2019-04-03 15:53:59:323
5.66,-1.8,14.08,4.79,-1.44,5.49,0.07,0.1,0.02,7524,2019-04-03 15:53:59:329
5.66,-1.8,14.08,4.79,-1.44,5.49,0.07,0.1,0.02,7530,2019-04-03 15:53:59:335
5.66,-1.8,14.08,4.79,-1.44,5.49,0.07,0.1,0.02,7534,2019-04-03 15:53:59:339
5.66,-1.8,14.08,4.79,-1.44,5.49,0.07,0.1,0.02,7539,2019-04-03 15:53:59:344
5.05,-0.48,11.77,4.44,-0.24,3.07,-0.06,0.63,0.05,7545,2019-04-03 15:53:59:350
5.05,-0.48,11.77,4.44,-0.24,3.07,-0.06,0.63,0.05,7549,2019-04-03 15:53:59:354
5.05,-0.48,11.77,4.44,-0.24,3.07,-0.06,0.63,0.05,7554,2019-04-03 15:53:59:359
-6.07,1.2,3.54,-6.19,1.49,-5.17,-0.24,-0.11,-0.14,7559,2019-04-03 15:53:59:364
-6.07,1.2,3.54,-6.19,1.49,-5.17,-0.24,-0.11,-0.14,7566,2019-04-03 15:53:59:371
-6.07,1.2,3.54,-6.19,1.49,-5.17,-0.24,-0.11,-0.14,7569,2019-04-03 15:53:59:374
-6.07,1.2,3.54,-6.19,1.49,-5.17,-0.24,-0.11,-0.14,7574,2019-04-03 15:53:59:379
-6.07,1.2,3.54,-6.19,1.49,-5.17,-0.24,-0.11,-0.14,7579,2019-04-03 15:53:59:384
1.72,-1.08,13.76,1.39,-0.85,4.27,0.33,-0.22,-0.16,7586,2019-04-03 15:53:59:391
1.72,-1.08,13.76,1.39,-0.85,4.27,0.33,-0.22,-0.16,7589,2019-04-03 15:53:59:394
1.72,-1.08,13.76,1.39,-0.85,4.27,0.33,-0.22,-0.16,7595,2019-04-03 15:53:59:400
-0.78,5.77,7.0,1.39,-0.85,4.27,-0.11,0.2,-0.13,7599,2019-04-03 15:53:59:404
-0.78,5.77,7.0,-0.8,5.64,-2.68,-0.11,0.2,-0.13,7604,2019-04-03 15:53:59:409
-0.78,5.77,7.0,-0.8,5.64,-2.68,-0.11,0.2,-0.13,7611,2019-04-03 15:53:59:416
-0.78,5.77,7.0,-0.8,5.64,-2.68,-0.11,0.2,-0.13,7617,2019-04-03 15:53:59:422
-0.78,5.77,7.0,-0.8,5.64,-2.68,-0.11,0.2,-0.13,7619,2019-04-03 15:53:59:424
-1.57,-1.56,11.47,-1.57,-1.39,1.21,-0.1,-0.18,-0.21,7624,2019-04-03 15:53:59:429
-1.57,-1.56,11.47,-1.57,-1.39,1.21,-0.1,-0.18,-0.21,7629,2019-04-03 15:53:59:434
-1.57,-1.56,11.47,-1.57,-1.39,1.21,-0.1,-0.18,-0.21,7634,2019-04-03 15:53:59:439
-1.57,-1.56,11.47,-1.57,-1.39,1.21,-0.1,-0.18,-0.21,7639,2019-04-03 15:53:59:444
4.1,-1.02,13.97,4.39,-1.16,3.99,0.35,0.12,-0.16,7644,2019-04-03 15:53:59:449
4.1,-1.02,13.97,4.39,-1.16,3.99,0.35,0.12,-0.16,7649,2019-04-03 15:53:59:454
4.1,-1.02,13.97,4.39,-1.16,3.99,0.35,0.12,-0.16,7660,2019-04-03 15:53:59:465
4.1,-1.02,13.97,4.39,-1.16,3.99,0.35,0.12,-0.16,7661,2019-04-03 15:53:59:466
1.6,4.05,6.94,1.93,3.87,-3.03,-0.16,-0.03,-0.1,7666,2019-04-03 15:53:59:471
1.6,4.05,6.94,1.93,3.87,-3.03,-0.16,-0.03,-0.1,7669,2019-04-03 15:53:59:474
1.6,4.05,6.94,1.93,3.87,-3.03,-0.16,-0.03,-0.1,7674,2019-04-03 15:53:59:479
1.6,4.05,6.94,1.93,3.87,-3.03,-0.16,-0.03,-0.1,7678,2019-04-03 15:53:59:483
1.6,4.05,6.94,1.93,3.87,-3.03,-0.16,-0.03,-0.1,7684,2019-04-03 15:53:59:489
1.6,4.05,6.94,1.93,3.87,-3.03,-0.16,-0.03,-0.1,7688,2019-04-03 15:53:59:493
-4.86,1.27,4.6,-4.93,0.85,-5.47,0.04,-0.2,-0.02,7694,2019-04-03 15:53:59:499
-4.86,1.27,4.6,-4.93,0.85,-5.47,0.04,-0.2,-0.02,7699,2019-04-03 15:53:59:504
-4.86,1.27,4.6,-4.93,0.85,-5.47,0.04,-0.2,-0.02,7704,2019-04-03 15:53:59:509
-4.86,1.27,4.6,-4.93,0.85,-5.47,0.04,-0.2,-0.02,7709,2019-04-03 15:53:59:514
-4.86,1.27,4.6,-4.93,0.85,-5.47,0.04,-0.2,-0.02,7714,2019-04-03 15:53:59:519
-6.17,-4.65,11.0,-6.01,-5.05,0.62,0.15,-0.25,-0.02,7719,2019-04-03 15:53:59:524
-6.17,-4.65,11.0,-6.01,-5.05,0.62,0.15,-0.25,-0.02,7725,2019-04-03 15:53:59:530
-6.17,-4.65,11.0,-6.01,-5.05,0.62,0.15,-0.25,-0.02,7728,2019-04-03 15:53:59:533
9.87,1.6,17.76,9.96,0.77,7.55,-0.01,0.11,-0.1,7733,2019-04-03 15:53:59:538
9.87,1.6,17.76,9.96,0.77,7.55,-0.01,0.11,-0.1,7739,2019-04-03 15:53:59:544
9.87,1.6,17.76,9.96,0.77,7.55,-0.01,0.11,-0.1,7744,2019-04-03 15:53:59:549
9.87,1.6,17.76,9.96,0.77,7.55,-0.01,0.11,-0.1,7749,2019-04-03 15:53:59:554
9.87,1.6,17.76,9.96,0.77,7.55,-0.01,0.11,-0.1,7755,2019-04-03 15:53:59:560
0.76,2.71,9.65,1.02,1.73,-0.56,-0.15,0.51,0.08,7760,2019-04-03 15:53:59:565
-6.5,0.49,8.13,-6.68,-0.73,-2.12,-0.07,-0.49,-0.08,7770,2019-04-03 15:53:59:575
-6.5,0.49,8.13,-6.68,-0.73,-2.12,-0.07,-0.49,-0.08,7773,2019-04-03 15:53:59:578
-6.5,0.49,8.13,-6.68,-0.73,-2.12,-0.07,-0.49,-0.08,7773,2019-04-03 15:53:59:578
-6.5,0.49,8.13,-6.68,-0.73,-2.12,-0.07,-0.49,-0.08,7779,2019-04-03 15:53:59:584
-6.5,0.49,8.13,-6.68,-0.73,-2.12,-0.14,-0.24,0.01,7786,2019-04-03 15:53:59:591
-6.5,0.49,8.13,-6.68,-0.73,-2.12,-0.14,-0.24,0.01,7789,2019-04-03 15:53:59:594
-6.5,0.49,8.13,-6.68,-0.73,-2.12,-0.14,-0.24,0.01,7795,2019-04-03 15:53:59:600
7.32,4.15,12.7,6.82,2.97,2.5,-0.15,0.36,0.15,7800,2019-04-03 15:53:59:605
7.32,4.15,12.7,6.82,2.97,2.5,-0.15,0.36,0.15,7804,2019-04-03 15:53:59:609
7.32,4.15,12.7,6.82,2.97,2.5,-0.15,0.36,0.15,7808,2019-04-03 15:53:59:613
7.32,4.15,12.7,6.82,2.97,2.5,-0.15,0.36,0.15,7816,2019-04-03 15:53:59:621
7.32,4.15,12.7,6.82,2.97,2.5,-0.15,0.36,0.15,7819,2019-04-03 15:53:59:624
7.32,4.15,12.7,6.82,2.97,2.5,-0.15,0.36,0.15,7824,2019-04-03 15:53:59:629
7.32,4.15,12.7,6.82,2.97,2.5,-0.15,0.36,0.15,7829,2019-04-03 15:53:59:634
1.16,1.22,10.16,0.75,-0.21,0.43,-0.11,0.12,0.16,7834,2019-04-03 15:53:59:639
1.16,1.22,10.16,0.75,-0.21,0.43,-0.11,0.12,0.16,7839,2019-04-03 15:53:59:644
1.16,1.22,10.16,0.75,-0.21,0.43,-0.11,0.12,0.16,7844,2019-04-03 15:53:59:649
-3.02,0.24,7.9,-3.39,-1.19,-1.65,0.16,-0.22,0.15,7849,2019-04-03 15:53:59:654
-3.02,0.24,7.9,-3.39,-1.19,-1.65,0.16,-0.22,0.15,7854,2019-04-03 15:53:59:659
-3.02,0.24,7.9,-3.39,-1.19,-1.65,0.16,-0.22,0.15,7859,2019-04-03 15:53:59:664
2.05,-2.29,6.59,1.83,-3.34,-2.88,-0.19,0.03,0.17,7865,2019-04-03 15:53:59:670
2.05,-2.29,6.59,1.83,-3.34,-2.88,-0.19,0.03,0.17,7869,2019-04-03 15:53:59:674
2.05,-2.29,6.59,1.83,-3.34,-2.88,-0.19,0.03,0.17,7874,2019-04-03 15:53:59:679
