ACCELEROMETER X (m/s²),ACCELEROMETER Y (m/s²),ACCELEROMETER Z (m/s²),LINEAR ACCELERATION X (m/s²),LINEAR ACCELERATION Y (m/s²),LINEAR ACCELERATION Z (m/s²),GYROSCOPE X (rad/s),GYROSCOPE Y (rad/s),GYROSCOPE Z (rad/s),Time since start in ms ,YYYY-MO-DD HH-MI-SS_SSS
3.9,3.44,-8.16,0.06,0.09,-0.03,-0.24,0.17,-0.04,6,2019-03-25 16:18:22:135
3.85,3.42,-8.03,0.02,0.0,0.02,-0.23,0.2,-0.08,11,2019-03-25 16:18:22:140
3.85,3.42,-8.03,0.02,0.0,0.02,-0.23,0.2,-0.08,17,2019-03-25 16:18:22:146
3.85,3.42,-8.03,0.02,0.0,0.02,-0.23,0.2,-0.08,22,2019-03-25 16:18:22:151
4.03,3.43,-8.09,0.14,-0.02,-0.05,-0.17,0.2,-0.05,26,2019-03-25 16:18:22:155
4.03,3.43,-8.09,0.14,-0.02,-0.05,-0.17,0.2,-0.05,36,2019-03-25 16:18:22:165
4.03,3.43,-8.09,0.14,-0.02,-0.05,-0.17,0.2,-0.05,38,2019-03-25 16:18:22:167
4.03,3.43,-8.09,0.14,-0.02,-0.05,-0.17,0.2,-0.05,42,2019-03-25 16:18:22:171
3.97,3.17,-8.27,0.04,-0.25,-0.23,-0.08,0.16,-0.02,46,2019-03-25 16:18:22:175
3.97,3.17,-8.27,0.04,-0.25,-0.23,-0.08,0.16,-0.02,51,2019-03-25 16:18:22:180
3.97,3.17,-8.27,0.04,-0.25,-0.23,-0.08,0.16,-0.02,56,2019-03-25 16:18:22:185
3.97,3.17,-8.27,0.04,-0.25,-0.23,-0.08,0.16,-0.02,61,2019-03-25 16:18:22:190
3.97,3.17,-8.27,0.04,-0.25,-0.23,-0.08,0.16,-0.02,67,2019-03-25 16:18:22:196
3.83,3.06,-8.3,-0.1,-0.27,-0.21,-0.08,0.08,0.05,71,2019-03-25 16:18:22:200
3.83,3.06,-8.3,-0.1,-0.27,-0.21,-0.08,0.08,0.05,76,2019-03-25 16:18:22:205
3.83,3.06,-8.3,-0.1,-0.27,-0.21,-0.08,0.08,0.05,81,2019-03-25 16:18:22:210
4.01,3.37,-8.34,0.03,0.06,-0.21,-0.12,0.07,0.11,86,2019-03-25 16:18:22:215
4.01,3.37,-8.34,0.03,0.06,-0.21,-0.12,0.07,0.11,91,2019-03-25 16:18:22:220
4.01,3.37,-8.34,0.03,0.06,-0.21,-0.12,0.07,0.11,96,2019-03-25 16:18:22:225
4.01,3.37,-8.34,0.03,0.06,-0.21,-0.12,0.07,0.11,102,2019-03-25 16:18:22:231
4.05,3.3,-8.29,0.02,-0.02,-0.16,-0.17,0.11,0.02,107,2019-03-25 16:18:22:236
4.05,3.3,-8.29,0.02,-0.02,-0.16,-0.17,0.11,0.02,112,2019-03-25 16:18:22:241
4.05,3.3,-8.29,0.02,-0.02,-0.16,-0.17,0.11,0.02,117,2019-03-25 16:18:22:246
4.05,3.3,-8.29,0.02,-0.02,-0.16,-0.17,0.11,0.02,122,2019-03-25 16:18:22:251
4.0,3.27,-8.24,0.02,-0.02,-0.16,-0.22,0.17,-0.06,126,2019-03-25 16:18:22:255
4.0,3.27,-8.24,-0.04,-0.08,-0.13,-0.22,0.17,-0.06,131,2019-03-25 16:18:22:260
4.0,3.27,-8.24,-0.04,-0.08,-0.13,-0.22,0.17,-0.06,136,2019-03-25 16:18:22:265
4.0,3.27,-8.24,-0.04,-0.08,-0.13,-0.22,0.17,-0.06,141,2019-03-25 16:18:22:270
3.93,3.32,-8.32,-0.11,-0.04,-0.21,-0.27,0.24,-0.09,147,2019-03-25 16:18:22:276
3.93,3.32,-8.32,-0.11,-0.04,-0.21,-0.27,0.24,-0.09,152,2019-03-25 16:18:22:281
3.93,3.32,-8.32,-0.11,-0.04,-0.21,-0.27,0.24,-0.09,156,2019-03-25 16:18:22:285
3.93,3.32,-8.32,-0.11,-0.04,-0.21,-0.27,0.24,-0.09,162,2019-03-25 16:18:22:291
3.93,3.32,-8.32,-0.11,-0.04,-0.21,-0.27,0.24,-0.09,166,2019-03-25 16:18:22:295
3.85,3.32,-8.13,-0.19,-0.06,-0.01,-0.26,0.13,-0.04,172,2019-03-25 16:18:22:301
3.85,3.32,-8.13,-0.19,-0.06,-0.01,-0.26,0.13,-0.04,177,2019-03-25 16:18:22:306
3.85,3.32,-8.13,-0.19,-0.06,-0.01,-0.26,0.13,-0.04,182,2019-03-25 16:18:22:311
3.85,3.32,-8.13,-0.19,-0.06,-0.01,-0.26,0.13,-0.04,186,2019-03-25 16:18:22:315
3.93,3.32,-7.92,-0.09,-0.05,0.19,-0.18,0.02,0.02,191,2019-03-25 16:18:22:320
3.93,3.32,-7.92,-0.09,-0.05,0.19,-0.18,0.02,0.02,196,2019-03-25 16:18:22:325
3.93,3.32,-7.92,-0.09,-0.05,0.19,-0.18,0.02,0.02,201,2019-03-25 16:18:22:330
4.02,3.59,-7.92,0.0,0.2,0.18,-0.06,-0.02,0.09,207,2019-03-25 16:18:22:336
4.02,3.59,-7.92,0.0,0.2,0.18,-0.06,-0.02,0.09,212,2019-03-25 16:18:22:341
4.02,3.59,-7.92,0.0,0.2,0.18,-0.06,-0.02,0.09,216,2019-03-25 16:18:22:345
4.02,3.59,-7.92,0.0,0.2,0.18,-0.06,-0.02,0.09,221,2019-03-25 16:18:22:350
4.04,3.69,-8.16,0.03,0.28,-0.03,0.01,-0.04,0.06,226,2019-03-25 16:18:22:355
4.04,3.69,-8.16,0.03,0.28,-0.03,0.01,-0.04,0.06,231,2019-03-25 16:18:22:360
4.04,3.69,-8.16,0.03,0.28,-0.03,0.01,-0.04,0.06,237,2019-03-25 16:18:22:366
4.04,3.69,-8.16,0.03,0.28,-0.03,0.01,-0.04,0.06,242,2019-03-25 16:18:22:371
4.03,3.55,-8.24,0.03,0.11,-0.1,-0.04,0.03,-0.03,247,2019-03-25 16:18:22:376
4.03,3.55,-8.24,0.03,0.11,-0.1,-0.04,0.03,-0.03,252,2019-03-25 16:18:22:381
4.03,3.55,-8.24,0.03,0.11,-0.1,-0.04,0.03,-0.03,257,2019-03-25 16:18:22:386
4.03,3.55,-8.24,0.03,0.11,-0.1,-0.04,0.03,-0.03,261,2019-03-25 16:18:22:390
4.03,3.55,-8.24,0.03,0.11,-0.1,-0.04,0.03,-0.03,266,2019-03-25 16:18:22:395
4.02,3.36,-7.92,0.01,-0.12,0.19,-0.09,0.0,-0.08,271,2019-03-25 16:18:22:400
4.02,3.36,-7.92,0.01,-0.12,0.19,-0.09,0.0,-0.08,276,2019-03-25 16:18:22:405
4.02,3.36,-7.92,0.01,-0.12,0.19,-0.09,0.0,-0.08,281,2019-03-25 16:18:22:410
3.86,3.32,-7.7,-0.13,-0.15,0.36,-0.06,0.04,-0.08,286,2019-03-25 16:18:22:415
3.86,3.32,-7.7,-0.13,-0.15,0.36,-0.06,0.04,-0.08,291,2019-03-25 16:18:22:420
3.86,3.32,-7.7,-0.13,-0.15,0.36,-0.06,0.04,-0.08,297,2019-03-25 16:18:22:426
3.86,3.32,-7.7,-0.13,-0.15,0.36,-0.06,0.04,-0.08,302,2019-03-25 16:18:22:431
3.64,3.23,-7.95,-0.3,-0.23,0.08,-0.05,0.0,-0.03,307,2019-03-25 16:18:22:436
3.64,3.23,-7.95,-0.3,-0.23,0.08,-0.05,0.0,-0.03,311,2019-03-25 16:18:22:440
3.64,3.23,-7.95,-0.3,-0.23,0.08,-0.05,0.0,-0.03,317,2019-03-25 16:18:22:446
3.64,3.23,-7.95,-0.3,-0.23,0.08,-0.05,0.0,-0.03,321,2019-03-25 16:18:22:450
3.57,3.32,-7.78,-0.33,-0.13,0.22,-0.11,0.03,0.09,326,2019-03-25 16:18:22:455
3.57,3.32,-7.78,-0.33,-0.13,0.22,-0.11,0.03,0.09,331,2019-03-25 16:18:22:460
3.57,3.32,-7.78,-0.33,-0.13,0.22,-0.11,0.03,0.09,337,2019-03-25 16:18:22:466
3.57,3.32,-7.78,-0.33,-0.13,0.22,-0.11,0.03,0.09,341,2019-03-25 16:18:22:470
3.95,3.63,-7.68,0.03,0.14,0.24,-0.12,0.14,0.15,346,2019-03-25 16:18:22:475
3.95,3.63,-7.68,0.03,0.14,0.24,-0.12,0.14,0.15,351,2019-03-25 16:18:22:480
3.95,3.63,-7.68,0.03,0.14,0.24,-0.12,0.14,0.15,357,2019-03-25 16:18:22:486
3.95,3.63,-7.68,0.03,0.14,0.24,-0.12,0.14,0.15,362,2019-03-25 16:18:22:491
3.95,3.63,-7.68,0.03,0.14,0.24,-0.12,0.14,0.15,367,2019-03-25 16:18:22:496
3.97,3.77,-7.34,0.01,0.25,0.49,-0.05,0.17,0.1,371,2019-03-25 16:18:22:500
3.97,3.77,-7.34,0.01,0.25,0.49,-0.05,0.17,0.1,376,2019-03-25 16:18:22:505
3.97,3.77,-7.34,0.01,0.25,0.49,-0.05,0.17,0.1,381,2019-03-25 16:18:22:510
4.05,3.47,-7.99,0.05,-0.06,-0.18,0.06,0.22,0.0,387,2019-03-25 16:18:22:516
4.05,3.47,-7.99,0.05,-0.06,-0.18,0.06,0.22,0.0,392,2019-03-25 16:18:22:521
4.05,3.47,-7.99,0.05,-0.06,-0.18,0.06,0.22,0.0,397,2019-03-25 16:18:22:526
4.05,3.47,-7.99,0.05,-0.06,-0.18,0.06,0.22,0.0,401,2019-03-25 16:18:22:530
4.08,3.35,-8.04,0.06,-0.14,-0.2,0.04,0.13,0.02,407,2019-03-25 16:18:22:536
4.08,3.35,-8.04,0.06,-0.14,-0.2,0.04,0.13,0.02,412,2019-03-25 16:18:22:541
4.08,3.35,-8.04,0.06,-0.14,-0.2,0.04,0.13,0.02,416,2019-03-25 16:18:22:545
4.08,3.35,-8.04,0.06,-0.14,-0.2,0.04,0.13,0.02,421,2019-03-25 16:18:22:550
3.96,3.42,-7.81,-0.04,-0.02,0.0,0.04,-0.01,0.06,427,2019-03-25 16:18:22:556
3.96,3.42,-7.81,-0.04,-0.02,0.0,0.04,-0.01,0.06,432,2019-03-25 16:18:22:561
3.96,3.42,-7.81,-0.04,-0.02,0.0,0.04,-0.01,0.06,436,2019-03-25 16:18:22:565
3.96,3.42,-7.81,-0.04,-0.02,0.0,0.04,-0.01,0.06,441,2019-03-25 16:18:22:570
3.77,2.95,-7.69,-0.19,-0.4,0.09,0.1,-0.13,0.18,446,2019-03-25 16:18:22:575
3.77,2.95,-7.69,-0.19,-0.4,0.09,0.1,-0.13,0.18,452,2019-03-25 16:18:22:581
3.77,2.95,-7.69,-0.19,-0.4,0.09,0.1,-0.13,0.18,457,2019-03-25 16:18:22:586
3.77,2.95,-7.69,-0.19,-0.4,0.09,0.1,-0.13,0.18,461,2019-03-25 16:18:22:590
3.77,2.95,-7.69,-0.19,-0.4,0.09,0.1,-0.13,0.18,466,2019-03-25 16:18:22:595
4.16,3.21,-7.71,0.22,-0.05,0.08,0.15,-0.24,0.33,472,2019-03-25 16:18:22:601
4.16,3.21,-7.71,0.22,-0.05,0.08,0.15,-0.24,0.33,477,2019-03-25 16:18:22:606
4.16,3.21,-7.71,0.22,-0.05,0.08,0.15,-0.24,0.33,482,2019-03-25 16:18:22:611
3.89,3.52,-7.91,-0.04,0.26,-0.08,0.11,-0.18,0.29,487,2019-03-25 16:18:22:616
3.89,3.52,-7.91,-0.04,0.26,-0.08,0.11,-0.18,0.29,492,2019-03-25 16:18:22:621
3.89,3.52,-7.91,-0.04,0.26,-0.08,0.11,-0.18,0.29,496,2019-03-25 16:18:22:625
3.89,3.52,-7.91,-0.04,0.26,-0.08,0.11,-0.18,0.29,502,2019-03-25 16:18:22:631
3.89,3.52,-7.91,-0.04,0.26,-0.08,0.11,-0.18,0.29,507,2019-03-25 16:18:22:636
3.89,3.52,-7.91,-0.04,0.26,-0.08,0.11,-0.18,0.29,511,2019-03-25 16:18:22:640
3.89,3.52,-7.91,-0.04,0.26,-0.08,0.11,-0.18,0.29,516,2019-03-25 16:18:22:645
4.03,3.69,-8.12,0.09,0.39,-0.27,0.02,-0.08,0.21,522,2019-03-25 16:18:22:651
4.03,3.69,-8.12,0.09,0.39,-0.27,0.02,-0.08,0.21,527,2019-03-25 16:18:22:656
4.03,3.69,-8.12,0.09,0.39,-0.27,0.02,-0.08,0.21,531,2019-03-25 16:18:22:660
4.03,3.69,-8.12,0.09,0.39,-0.27,0.02,-0.08,0.21,537,2019-03-25 16:18:22:666
4.03,3.69,-8.12,0.09,0.39,-0.27,0.02,-0.08,0.21,542,2019-03-25 16:18:22:671
4.16,3.28,-8.23,0.11,-0.04,-0.37,0.12,0.0,0.15,546,2019-03-25 16:18:22:675
4.16,3.28,-8.23,0.11,-0.04,-0.37,0.12,0.0,0.15,552,2019-03-25 16:18:22:681
4.16,3.28,-8.23,0.11,-0.04,-0.37,0.12,0.0,0.15,557,2019-03-25 16:18:22:686
4.16,3.28,-8.23,0.11,-0.04,-0.37,0.12,0.0,0.15,562,2019-03-25 16:18:22:691
4.16,3.28,-8.23,0.11,-0.04,-0.37,0.12,0.0,0.15,566,2019-03-25 16:18:22:695
4.1,3.25,-7.77,0.05,0.0,0.16,0.21,-0.15,0.25,572,2019-03-25 16:18:22:701
4.1,3.25,-7.77,0.05,0.0,0.16,0.21,-0.15,0.25,577,2019-03-25 16:18:22:706
4.1,3.25,-7.77,0.05,0.0,0.16,0.21,-0.15,0.25,582,2019-03-25 16:18:22:711
4.1,3.25,-7.77,0.05,0.0,0.16,0.21,-0.15,0.25,586,2019-03-25 16:18:22:715
4.1,3.25,-7.77,0.05,0.0,0.16,0.21,-0.15,0.25,591,2019-03-25 16:18:22:720
4.44,3.41,-7.86,0.38,0.23,0.09,0.32,-0.47,0.5,597,2019-03-25 16:18:22:726
4.44,3.41,-7.86,0.38,0.23,0.09,0.32,-0.47,0.5,601,2019-03-25 16:18:22:730
4.44,3.41,-7.86,0.38,0.23,0.09,0.36,-0.49,0.43,607,2019-03-25 16:18:22:736
4.2,3.82,-7.73,0.26,0.56,0.12,0.36,-0.49,0.43,612,2019-03-25 16:18:22:741
4.2,3.82,-7.73,0.26,0.56,0.12,0.36,-0.49,0.43,617,2019-03-25 16:18:22:746
4.2,3.82,-7.73,0.26,0.56,0.12,0.36,-0.49,0.43,621,2019-03-25 16:18:22:750
4.2,3.82,-7.73,0.26,0.56,0.12,0.36,-0.49,0.43,627,2019-03-25 16:18:22:756
4.2,3.82,-7.73,0.26,0.56,0.12,0.36,-0.49,0.43,631,2019-03-25 16:18:22:760
4.18,3.14,-10.5,0.12,-0.01,-2.38,0.29,-0.16,0.15,636,2019-03-25 16:18:22:765
4.18,3.14,-10.5,0.12,-0.01,-2.38,0.29,-0.16,0.15,641,2019-03-25 16:18:22:770
4.18,3.14,-10.5,0.12,-0.01,-2.38,0.29,-0.16,0.15,646,2019-03-25 16:18:22:775
4.18,3.14,-10.5,0.12,-0.01,-2.38,0.29,-0.16,0.15,652,2019-03-25 16:18:22:781
4.33,3.15,-8.05,0.22,-0.04,0.1,-0.04,-0.02,-0.03,657,2019-03-25 16:18:22:786
4.33,3.15,-8.05,0.22,-0.04,0.1,-0.04,-0.02,-0.03,662,2019-03-25 16:18:22:791
4.33,3.15,-8.05,0.22,-0.04,0.1,-0.04,-0.02,-0.03,666,2019-03-25 16:18:22:795
4.34,3.35,-8.06,0.19,0.06,0.08,-0.12,0.03,-0.19,672,2019-03-25 16:18:22:801
4.34,3.35,-8.06,0.19,0.06,0.08,-0.12,0.03,-0.19,677,2019-03-25 16:18:22:806
4.34,3.35,-8.06,0.19,0.06,0.08,-0.12,0.03,-0.19,681,2019-03-25 16:18:22:810
4.0,2.93,-7.99,-0.14,-0.39,0.14,-0.1,-0.09,-0.33,687,2019-03-25 16:18:22:816
4.0,2.93,-7.99,-0.14,-0.39,0.14,-0.1,-0.09,-0.33,692,2019-03-25 16:18:22:821
4.0,2.93,-7.99,-0.14,-0.39,0.14,-0.1,-0.09,-0.33,697,2019-03-25 16:18:22:826
4.0,2.93,-7.99,-0.14,-0.39,0.14,-0.1,-0.09,-0.33,702,2019-03-25 16:18:22:831
3.42,3.0,-8.95,-0.68,-0.32,-0.77,-0.12,0.13,-0.42,707,2019-03-25 16:18:22:836
3.42,3.0,-8.95,-0.68,-0.32,-0.77,-0.12,0.13,-0.42,712,2019-03-25 16:18:22:841
3.42,3.0,-8.95,-0.68,-0.32,-0.77,-0.12,0.13,-0.42,717,2019-03-25 16:18:22:846
3.42,3.0,-8.95,-0.68,-0.32,-0.77,-0.12,0.13,-0.42,722,2019-03-25 16:18:22:851
3.68,2.9,-8.28,-0.37,-0.44,-0.08,-0.36,0.19,-0.33,727,2019-03-25 16:18:22:856
3.68,2.9,-8.28,-0.37,-0.44,-0.08,-0.36,0.19,-0.33,732,2019-03-25 16:18:22:861
3.68,2.9,-8.28,-0.37,-0.44,-0.08,-0.36,0.19,-0.33,737,2019-03-25 16:18:22:866
3.68,2.9,-8.28,-0.37,-0.44,-0.08,-0.36,0.19,-0.33,742,2019-03-25 16:18:22:871
4.05,3.1,-7.82,0.0,-0.25,0.34,-0.22,0.05,0.01,747,2019-03-25 16:18:22:876
4.05,3.1,-7.82,0.0,-0.25,0.34,-0.22,0.05,0.01,752,2019-03-25 16:18:22:881
4.05,3.1,-7.82,0.0,-0.25,0.34,-0.22,0.05,0.01,757,2019-03-25 16:18:22:886
4.05,3.1,-7.82,0.0,-0.25,0.34,-0.22,0.05,0.01,762,2019-03-25 16:18:22:891
4.05,3.1,-7.82,0.0,-0.25,0.34,-0.22,0.05,0.01,767,2019-03-25 16:18:22:896
4.21,3.42,-8.38,0.14,0.05,-0.18,0.02,-0.18,0.16,772,2019-03-25 16:18:22:901
4.21,3.42,-8.38,0.14,0.05,-0.18,0.02,-0.18,0.16,777,2019-03-25 16:18:22:906
4.21,3.42,-8.38,0.14,0.05,-0.18,0.02,-0.18,0.16,782,2019-03-25 16:18:22:911
4.12,3.45,-8.03,0.09,0.08,0.2,-0.08,-0.28,0.0,787,2019-03-25 16:18:22:916
4.12,3.45,-8.03,0.09,0.08,0.2,-0.08,-0.28,0.0,792,2019-03-25 16:18:22:921
4.12,3.45,-8.03,0.09,0.08,0.2,-0.08,-0.28,0.0,797,2019-03-25 16:18:22:926
4.12,3.45,-8.03,0.09,0.08,0.2,-0.08,-0.28,0.0,802,2019-03-25 16:18:22:931
4.12,3.45,-8.03,0.09,0.08,0.2,-0.08,-0.28,0.0,806,2019-03-25 16:18:22:935
4.12,3.45,-8.03,0.09,0.08,0.2,-0.08,-0.28,0.0,812,2019-03-25 16:18:22:941
4.12,3.45,-8.03,0.09,0.08,0.2,-0.08,-0.28,0.0,817,2019-03-25 16:18:22:946
3.56,3.32,-7.83,-0.37,-0.03,0.4,-0.19,-0.13,-0.17,821,2019-03-25 16:18:22:950
3.56,3.32,-7.83,-0.37,-0.03,0.4,-0.19,-0.13,-0.17,826,2019-03-25 16:18:22:955
3.56,3.32,-7.83,-0.37,-0.03,0.4,-0.19,-0.13,-0.17,832,2019-03-25 16:18:22:961
3.56,3.32,-7.83,-0.37,-0.03,0.4,-0.19,-0.13,-0.17,837,2019-03-25 16:18:22:966
3.56,3.32,-7.83,-0.37,-0.03,0.4,-0.19,-0.13,-0.17,841,2019-03-25 16:18:22:970
3.56,3.32,-7.83,-0.37,-0.03,0.4,-0.19,-0.13,-0.17,847,2019-03-25 16:18:22:976
3.56,3.32,-7.83,-0.37,-0.03,0.4,-0.19,-0.13,-0.17,852,2019-03-25 16:18:22:981
3.91,3.54,-7.97,0.06,0.1,0.1,-0.3,0.05,-0.12,857,2019-03-25 16:18:22:986
3.91,3.54,-7.97,0.06,0.1,0.1,-0.3,0.05,-0.12,861,2019-03-25 16:18:22:990
3.91,3.54,-7.97,0.06,0.1,0.1,-0.3,0.05,-0.12,867,2019-03-25 16:18:22:996
3.38,3.32,-7.92,-0.39,-0.15,0.13,-0.32,0.09,-0.21,872,2019-03-25 16:18:23:001
3.38,3.32,-7.92,-0.39,-0.15,0.13,-0.32,0.09,-0.21,877,2019-03-25 16:18:23:006
3.38,3.32,-7.92,-0.39,-0.15,0.13,-0.32,0.09,-0.21,881,2019-03-25 16:18:23:010
3.59,3.58,-7.78,-0.13,0.05,0.23,-0.29,0.03,-0.13,887,2019-03-25 16:18:23:016
3.59,3.58,-7.78,-0.13,0.05,0.23,-0.29,0.03,-0.13,892,2019-03-25 16:18:23:021
3.59,3.58,-7.78,-0.13,0.05,0.23,-0.29,0.03,-0.13,898,2019-03-25 16:18:23:027
3.59,3.58,-7.78,-0.13,0.05,0.23,-0.29,0.03,-0.13,902,2019-03-25 16:18:23:031
3.91,3.6,-8.02,0.15,0.0,-0.08,-0.19,-0.04,-0.08,907,2019-03-25 16:18:23:036
3.91,3.6,-8.02,0.15,0.0,-0.08,-0.19,-0.04,-0.08,912,2019-03-25 16:18:23:041
3.91,3.6,-8.02,0.15,0.0,-0.08,-0.19,-0.04,-0.08,917,2019-03-25 16:18:23:046
3.91,3.6,-8.02,0.15,0.0,-0.08,-0.19,-0.04,-0.08,922,2019-03-25 16:18:23:051
3.78,3.57,-7.85,0.0,-0.06,0.03,-0.05,-0.01,-0.1,927,2019-03-25 16:18:23:056
3.78,3.57,-7.85,0.0,-0.06,0.03,-0.05,-0.01,-0.1,931,2019-03-25 16:18:23:060
3.78,3.57,-7.85,0.0,-0.06,0.03,-0.05,-0.01,-0.1,937,2019-03-25 16:18:23:066
3.78,3.57,-7.85,0.0,-0.06,0.03,-0.05,-0.01,-0.1,942,2019-03-25 16:18:23:071
3.78,3.57,-7.85,0.0,-0.06,0.03,-0.05,-0.01,-0.1,947,2019-03-25 16:18:23:076
3.78,3.57,-7.85,0.0,-0.06,0.03,-0.05,-0.01,-0.1,952,2019-03-25 16:18:23:081
3.6,3.6,-7.64,-0.15,-0.04,0.24,0.15,0.04,0.0,956,2019-03-25 16:18:23:085
3.6,3.6,-7.64,-0.15,-0.04,0.24,0.15,0.04,0.0,961,2019-03-25 16:18:23:090
3.6,3.6,-7.64,-0.15,-0.04,0.24,0.15,0.04,0.0,966,2019-03-25 16:18:23:095
3.6,3.6,-7.64,-0.15,-0.04,0.24,0.15,0.04,0.0,971,2019-03-25 16:18:23:100
4.07,3.64,-8.66,0.32,0.06,-0.72,0.37,-0.06,0.1,976,2019-03-25 16:18:23:105
4.07,3.64,-8.66,0.32,0.06,-0.72,0.37,-0.06,0.1,981,2019-03-25 16:18:23:110
3.92,3.3,-8.36,-0.02,-0.17,-0.12,0.25,-0.18,0.02,987,2019-03-25 16:18:23:116
3.92,3.3,-8.36,-0.02,-0.17,-0.12,0.25,-0.18,0.02,992,2019-03-25 16:18:23:121
3.92,3.3,-8.36,-0.02,-0.17,-0.12,0.25,-0.18,0.02,997,2019-03-25 16:18:23:126
3.92,3.3,-8.36,-0.02,-0.17,-0.12,0.25,-0.18,0.02,1002,2019-03-25 16:18:23:131
3.5,3.29,-8.12,-0.02,-0.17,-0.12,0.16,-0.14,-0.03,1006,2019-03-25 16:18:23:135
3.5,3.29,-8.12,-0.18,-0.14,-0.04,0.16,-0.14,-0.03,1011,2019-03-25 16:18:23:140
3.5,3.29,-8.12,-0.18,-0.14,-0.04,0.16,-0.14,-0.03,1017,2019-03-25 16:18:23:146
3.5,3.29,-8.12,-0.18,-0.14,-0.04,0.16,-0.14,-0.03,1021,2019-03-25 16:18:23:150
3.89,3.5,-8.36,0.19,0.09,-0.23,0.13,-0.05,0.02,1027,2019-03-25 16:18:23:156
3.89,3.5,-8.36,0.19,0.09,-0.23,0.13,-0.05,0.02,1031,2019-03-25 16:18:23:160
3.89,3.5,-8.36,0.19,0.09,-0.23,0.13,-0.05,0.02,1036,2019-03-25 16:18:23:165
3.89,3.5,-8.36,0.19,0.09,-0.23,0.13,-0.05,0.02,1041,2019-03-25 16:18:23:170
3.89,3.5,-8.36,0.19,0.09,-0.23,0.13,-0.05,0.02,1046,2019-03-25 16:18:23:175
3.89,3.5,-8.36,0.19,0.09,-0.23,0.13,-0.05,0.02,1052,2019-03-25 16:18:23:181
3.97,3.51,-8.2,0.26,0.12,-0.04,0.05,-0.08,0.0,1057,2019-03-25 16:18:23:186
3.97,3.51,-8.2,0.26,0.12,-0.04,0.05,-0.08,0.0,1062,2019-03-25 16:18:23:191
3.97,3.51,-8.2,0.26,0.12,-0.04,0.05,-0.08,0.0,1067,2019-03-25 16:18:23:196
3.66,3.38,-7.97,0.26,0.12,-0.04,-0.01,-0.06,-0.08,1072,2019-03-25 16:18:23:201
3.66,3.38,-7.97,0.26,0.12,-0.04,-0.01,-0.06,-0.08,1077,2019-03-25 16:18:23:206
3.66,3.38,-7.97,0.26,0.12,-0.04,-0.01,-0.06,-0.08,1082,2019-03-25 16:18:23:211
3.76,3.3,-8.06,0.26,0.12,-0.04,-0.01,0.05,-0.06,1087,2019-03-25 16:18:23:216
3.76,3.3,-8.06,0.01,-0.1,0.12,-0.01,0.05,-0.06,1092,2019-03-25 16:18:23:221
3.76,3.3,-8.06,0.01,-0.1,0.12,-0.01,0.05,-0.06,1097,2019-03-25 16:18:23:226
3.76,3.3,-8.06,0.01,-0.1,0.12,-0.01,0.05,-0.06,1102,2019-03-25 16:18:23:231
3.98,3.55,-8.46,0.21,0.15,-0.25,0.0,0.01,-0.01,1106,2019-03-25 16:18:23:235
3.98,3.55,-8.46,0.21,0.15,-0.25,0.0,0.01,-0.01,1111,2019-03-25 16:18:23:240
3.98,3.55,-8.46,0.21,0.15,-0.25,0.0,0.01,-0.01,1117,2019-03-25 16:18:23:246
3.98,3.55,-8.46,0.21,0.15,-0.25,0.0,0.01,-0.01,1122,2019-03-25 16:18:23:251
3.69,3.45,-7.96,-0.06,0.02,0.26,-0.06,-0.09,-0.11,1127,2019-03-25 16:18:23:256
3.69,3.45,-7.96,-0.06,0.02,0.26,-0.06,-0.09,-0.11,1132,2019-03-25 16:18:23:261
3.69,3.45,-7.96,-0.06,0.02,0.26,-0.06,-0.09,-0.11,1137,2019-03-25 16:18:23:266
3.69,3.45,-7.96,-0.06,0.02,0.26,-0.06,-0.09,-0.11,1142,2019-03-25 16:18:23:271
3.53,3.62,-7.92,-0.21,0.14,0.3,-0.13,-0.03,-0.19,1147,2019-03-25 16:18:23:276
3.53,3.62,-7.92,-0.21,0.14,0.3,-0.13,-0.03,-0.19,1152,2019-03-25 16:18:23:281
3.53,3.62,-7.92,-0.21,0.14,0.3,-0.13,-0.03,-0.19,1156,2019-03-25 16:18:23:285
3.53,3.62,-7.92,-0.21,0.14,0.3,-0.13,-0.03,-0.19,1161,2019-03-25 16:18:23:290
3.53,3.62,-7.92,-0.21,0.14,0.3,-0.13,-0.03,-0.19,1166,2019-03-25 16:18:23:295
3.53,3.58,-7.79,-0.17,0.06,0.35,-0.12,0.0,-0.13,1171,2019-03-25 16:18:23:300
3.53,3.58,-7.79,-0.17,0.06,0.35,-0.12,0.0,-0.13,1176,2019-03-25 16:18:23:305
3.53,3.58,-7.79,-0.17,0.06,0.35,-0.12,0.0,-0.13,1181,2019-03-25 16:18:23:310
3.53,3.58,-7.79,-0.17,0.06,0.35,-0.12,0.0,-0.13,1187,2019-03-25 16:18:23:316
3.53,3.58,-7.79,-0.17,0.06,0.35,-0.12,0.0,-0.13,1191,2019-03-25 16:18:23:320
3.42,3.22,-8.09,-0.23,-0.31,0.0,-0.09,-0.04,-0.11,1197,2019-03-25 16:18:23:326
3.42,3.22,-8.09,-0.23,-0.31,0.0,-0.09,-0.04,-0.11,1202,2019-03-25 16:18:23:331
3.42,3.22,-8.09,-0.23,-0.31,0.0,-0.15,0.05,-0.02,1206,2019-03-25 16:18:23:335
3.42,3.22,-8.09,-0.23,-0.31,0.0,-0.15,0.05,-0.02,1211,2019-03-25 16:18:23:340
3.42,3.22,-8.09,-0.23,-0.31,0.0,-0.15,0.05,-0.02,1217,2019-03-25 16:18:23:346
3.42,3.22,-8.09,-0.23,-0.31,0.0,-0.15,0.05,-0.02,1221,2019-03-25 16:18:23:350
3.94,3.79,-8.44,0.23,0.22,-0.34,-0.22,0.24,0.09,1226,2019-03-25 16:18:23:355
3.94,3.79,-8.44,0.23,0.22,-0.34,-0.22,0.24,0.09,1231,2019-03-25 16:18:23:360
3.94,3.79,-8.44,0.23,0.22,-0.34,-0.22,0.24,0.09,1237,2019-03-25 16:18:23:366
3.94,3.79,-8.44,0.23,0.22,-0.34,-0.22,0.24,0.09,1242,2019-03-25 16:18:23:371
3.75,3.74,-8.1,0.01,0.14,-0.03,-0.16,0.18,0.06,1246,2019-03-25 16:18:23:375
3.75,3.74,-8.1,0.01,0.14,-0.03,-0.16,0.18,0.06,1252,2019-03-25 16:18:23:381
3.75,3.74,-8.1,0.01,0.14,-0.03,-0.16,0.18,0.06,1257,2019-03-25 16:18:23:386
3.75,3.74,-8.1,0.01,0.14,-0.03,-0.16,0.18,0.06,1262,2019-03-25 16:18:23:391
3.75,3.74,-8.1,0.01,0.14,-0.03,-0.16,0.18,0.06,1267,2019-03-25 16:18:23:396
3.83,3.69,-8.48,0.06,0.08,-0.37,0.01,0.04,0.06,1272,2019-03-25 16:18:23:401
3.83,3.69,-8.48,0.06,0.08,-0.37,0.01,0.04,0.06,1276,2019-03-25 16:18:23:405
3.83,3.69,-8.48,0.06,0.08,-0.37,0.01,0.04,0.06,1281,2019-03-25 16:18:23:410
3.77,3.53,-8.18,0.02,-0.06,-0.03,0.03,-0.11,0.09,1287,2019-03-25 16:18:23:416
3.77,3.53,-8.18,0.02,-0.06,-0.03,0.03,-0.11,0.09,1291,2019-03-25 16:18:23:420
3.77,3.53,-8.18,0.02,-0.06,-0.03,0.03,-0.11,0.09,1296,2019-03-25 16:18:23:425
3.77,3.53,-8.18,0.02,-0.06,-0.03,0.03,-0.11,0.09,1303,2019-03-25 16:18:23:432
3.61,3.47,-8.52,-0.08,-0.1,-0.34,0.03,-0.17,0.05,1307,2019-03-25 16:18:23:436
3.61,3.47,-8.52,-0.08,-0.1,-0.34,0.03,-0.17,0.05,1311,2019-03-25 16:18:23:440
3.61,3.47,-8.52,-0.08,-0.1,-0.34,0.03,-0.17,0.05,1317,2019-03-25 16:18:23:446
3.61,3.47,-8.52,-0.08,-0.1,-0.34,0.03,-0.17,0.05,1322,2019-03-25 16:18:23:451
3.61,3.47,-8.52,-0.08,-0.1,-0.34,0.03,-0.17,0.05,1327,2019-03-25 16:18:23:456
3.61,3.47,-8.52,-0.08,-0.1,-0.34,0.03,-0.17,0.05,1331,2019-03-25 16:18:23:460
3.64,3.63,-8.09,-0.01,0.07,0.09,-0.09,-0.1,0.03,1336,2019-03-25 16:18:23:465
3.64,3.63,-8.09,-0.01,0.07,0.09,-0.09,-0.1,0.03,1342,2019-03-25 16:18:23:471
3.64,3.63,-8.09,-0.01,0.07,0.09,-0.17,-0.01,0.04,1347,2019-03-25 16:18:23:476
3.64,3.63,-8.09,0.15,0.41,0.0,-0.17,-0.01,0.04,1351,2019-03-25 16:18:23:480
3.64,3.63,-8.09,0.15,0.41,0.0,-0.17,-0.01,0.04,1356,2019-03-25 16:18:23:485
3.64,3.63,-8.09,0.15,0.41,0.0,-0.17,-0.01,0.04,1361,2019-03-25 16:18:23:490
3.64,3.63,-8.09,0.15,0.41,0.0,-0.17,-0.01,0.04,1367,2019-03-25 16:18:23:496
3.7,3.91,-8.16,0.01,0.25,0.08,-0.18,-0.06,-0.04,1372,2019-03-25 16:18:23:501
3.7,3.91,-8.16,0.01,0.25,0.08,-0.18,-0.06,-0.04,1376,2019-03-25 16:18:23:505
3.7,3.91,-8.16,0.01,0.25,0.08,-0.18,-0.06,-0.04,1382,2019-03-25 16:18:23:511
3.7,3.91,-8.16,0.01,0.25,0.08,-0.18,-0.06,-0.04,1386,2019-03-25 16:18:23:515
3.7,3.91,-8.16,0.01,0.25,0.08,-0.18,-0.06,-0.04,1392,2019-03-25 16:18:23:521
3.95,3.84,-7.75,0.25,0.1,0.37,-0.08,-0.07,-0.14,1396,2019-03-25 16:18:23:525
3.95,3.84,-7.75,0.25,0.1,0.37,-0.08,-0.07,-0.14,1402,2019-03-25 16:18:23:531
3.95,3.84,-7.75,0.25,0.1,0.37,-0.08,-0.07,-0.14,1407,2019-03-25 16:18:23:536
3.95,3.84,-7.75,0.25,0.1,0.37,-0.08,-0.07,-0.14,1412,2019-03-25 16:18:23:541
3.95,3.84,-7.75,0.25,0.1,0.37,-0.08,-0.07,-0.14,1417,2019-03-25 16:18:23:546
3.79,3.37,-8.24,0.12,-0.35,-0.08,0.21,-0.23,-0.14,1422,2019-03-25 16:18:23:551
3.79,3.37,-8.24,0.12,-0.35,-0.08,0.21,-0.23,-0.14,1427,2019-03-25 16:18:23:556
3.79,3.37,-8.24,0.12,-0.35,-0.08,0.21,-0.23,-0.14,1431,2019-03-25 16:18:23:560
3.79,3.37,-8.24,0.12,-0.35,-0.08,0.21,-0.23,-0.14,1437,2019-03-25 16:18:23:566
3.79,3.37,-8.24,0.12,-0.35,-0.08,0.21,-0.23,-0.14,1441,2019-03-25 16:18:23:570
3.79,3.37,-8.24,0.12,-0.35,-0.08,0.21,-0.23,-0.14,1447,2019-03-25 16:18:23:576
3.79,3.37,-8.24,0.12,-0.35,-0.08,0.21,-0.23,-0.14,1452,2019-03-25 16:18:23:581
3.54,3.59,-8.45,0.12,-0.35,-0.08,0.21,-0.23,-0.14,1456,2019-03-25 16:18:23:585
3.54,3.59,-8.45,-0.03,-0.13,-0.23,-0.03,-0.27,-0.15,1461,2019-03-25 16:18:23:590
3.54,3.59,-8.45,-0.03,-0.13,-0.23,-0.03,-0.27,-0.15,1466,2019-03-25 16:18:23:595
3.72,3.39,-8.53,0.2,-0.31,-0.29,-0.08,-0.31,-0.03,1471,2019-03-25 16:18:23:600
3.72,3.39,-8.53,0.2,-0.31,-0.29,-0.08,-0.31,-0.03,1476,2019-03-25 16:18:23:605
3.72,3.39,-8.53,0.2,-0.31,-0.29,-0.08,-0.31,-0.03,1482,2019-03-25 16:18:23:611
3.72,3.39,-8.53,0.2,-0.31,-0.29,-0.08,-0.31,-0.03,1487,2019-03-25 16:18:23:616
3.57,3.37,-8.45,0.08,-0.33,-0.19,-0.14,-0.29,0.01,1492,2019-03-25 16:18:23:621
3.57,3.37,-8.45,0.08,-0.33,-0.19,-0.14,-0.29,0.01,1497,2019-03-25 16:18:23:626
3.57,3.37,-8.45,0.08,-0.33,-0.19,-0.14,-0.29,0.01,1501,2019-03-25 16:18:23:630
3.5,3.4,-8.55,0.03,-0.31,-0.29,-0.27,-0.2,0.11,1506,2019-03-25 16:18:23:635
3.5,3.4,-8.55,0.03,-0.31,-0.29,-0.27,-0.2,0.11,1511,2019-03-25 16:18:23:640
3.5,3.4,-8.55,0.03,-0.31,-0.29,-0.27,-0.2,0.11,1516,2019-03-25 16:18:23:645
3.5,3.4,-8.55,0.03,-0.31,-0.29,-0.27,-0.2,0.11,1521,2019-03-25 16:18:23:650
3.38,3.84,-8.18,-0.08,0.08,0.07,-0.37,-0.14,0.14,1526,2019-03-25 16:18:23:655
3.38,3.84,-8.18,-0.08,0.08,0.07,-0.37,-0.14,0.14,1532,2019-03-25 16:18:23:661
3.38,3.84,-8.18,-0.08,0.08,0.07,-0.37,-0.14,0.14,1537,2019-03-25 16:18:23:666
3.38,3.84,-8.18,-0.08,0.08,0.07,-0.37,-0.14,0.14,1542,2019-03-25 16:18:23:671
3.2,3.61,-8.21,-0.22,-0.17,0.01,-0.38,-0.13,0.14,1547,2019-03-25 16:18:23:676
3.2,3.61,-8.21,-0.22,-0.17,0.01,-0.38,-0.13,0.14,1552,2019-03-25 16:18:23:681
3.2,3.61,-8.21,-0.22,-0.17,0.01,-0.38,-0.13,0.14,1557,2019-03-25 16:18:23:686
3.2,3.61,-8.21,-0.22,-0.17,0.01,-0.38,-0.13,0.14,1562,2019-03-25 16:18:23:691
3.2,3.61,-8.21,-0.22,-0.17,0.01,-0.38,-0.13,0.14,1567,2019-03-25 16:18:23:696
3.1,3.33,-8.26,-0.29,-0.42,-0.05,-0.36,-0.14,0.2,1572,2019-03-25 16:18:23:701
3.1,3.33,-8.26,-0.29,-0.42,-0.05,-0.36,-0.14,0.2,1577,2019-03-25 16:18:23:706
3.1,3.33,-8.26,-0.29,-0.42,-0.05,-0.36,-0.14,0.2,1582,2019-03-25 16:18:23:711
3.21,3.77,-8.25,-0.15,0.01,0.06,-0.39,-0.1,0.27,1587,2019-03-25 16:18:23:716
3.21,3.77,-8.25,-0.15,0.01,0.06,-0.39,-0.1,0.27,1592,2019-03-25 16:18:23:721
3.21,3.77,-8.25,-0.15,0.01,0.06,-0.39,-0.1,0.27,1597,2019-03-25 16:18:23:726
3.21,3.77,-8.25,-0.15,0.01,0.06,-0.39,-0.1,0.27,1601,2019-03-25 16:18:23:730
3.47,4.56,-7.95,0.1,0.68,0.31,-0.41,-0.11,0.25,1606,2019-03-25 16:18:23:735
3.47,4.56,-7.95,0.1,0.68,0.31,-0.41,-0.11,0.25,1611,2019-03-25 16:18:23:740
3.47,4.56,-7.95,0.1,0.68,0.31,-0.41,-0.11,0.25,1616,2019-03-25 16:18:23:745
3.47,4.56,-7.95,0.1,0.68,0.31,-0.41,-0.11,0.25,1621,2019-03-25 16:18:23:750
3.85,4.87,-7.48,0.45,0.86,0.69,-0.44,-0.09,0.16,1626,2019-03-25 16:18:23:755
3.85,4.87,-7.48,0.45,0.86,0.69,-0.44,-0.09,0.16,1631,2019-03-25 16:18:23:760
3.85,4.87,-7.48,0.45,0.86,0.69,-0.44,-0.09,0.16,1636,2019-03-25 16:18:23:765
3.85,4.87,-7.48,0.45,0.86,0.69,-0.44,-0.09,0.16,1641,2019-03-25 16:18:23:770
3.57,4.8,-7.89,0.14,0.65,0.18,-0.41,0.0,-0.01,1647,2019-03-25 16:18:23:776
3.57,4.8,-7.89,0.14,0.65,0.18,-0.41,0.0,-0.01,1652,2019-03-25 16:18:23:781
3.57,4.8,-7.89,0.14,0.65,0.18,-0.41,0.0,-0.01,1657,2019-03-25 16:18:23:786
3.57,4.8,-7.89,0.14,0.65,0.18,-0.41,0.0,-0.01,1662,2019-03-25 16:18:23:791
3.57,4.8,-7.89,0.14,0.65,0.18,-0.41,0.0,-0.01,1667,2019-03-25 16:18:23:796
3.22,4.05,-7.75,-0.19,-0.2,0.2,-0.5,0.21,-0.2,1671,2019-03-25 16:18:23:800
3.22,4.05,-7.75,-0.19,-0.2,0.2,-0.5,0.21,-0.2,1676,2019-03-25 16:18:23:805
3.22,4.05,-7.75,-0.19,-0.2,0.2,-0.5,0.21,-0.2,1682,2019-03-25 16:18:23:811
3.67,4.3,-7.88,0.25,0.0,0.0,-0.57,0.36,-0.21,1686,2019-03-25 16:18:23:815
3.67,4.3,-7.88,0.25,0.0,0.0,-0.57,0.36,-0.21,1691,2019-03-25 16:18:23:820
3.67,4.3,-7.88,0.25,0.0,0.0,-0.57,0.36,-0.21,1696,2019-03-25 16:18:23:825
3.67,4.3,-7.88,0.25,0.0,0.0,-0.57,0.36,-0.21,1701,2019-03-25 16:18:23:830
3.19,5.02,-8.13,-0.26,0.54,-0.38,-0.79,0.43,-0.1,1707,2019-03-25 16:18:23:836
3.19,5.02,-8.13,-0.26,0.54,-0.38,-0.79,0.43,-0.1,1712,2019-03-25 16:18:23:841
3.19,5.02,-8.13,-0.26,0.54,-0.38,-0.79,0.43,-0.1,1717,2019-03-25 16:18:23:846
3.19,5.02,-8.13,-0.26,0.54,-0.38,-0.79,0.43,-0.1,1721,2019-03-25 16:18:23:850
3.21,-2.03,-8.99,-0.28,-6.29,-1.28,-0.66,0.34,-0.03,1726,2019-03-25 16:18:23:855
3.21,-2.03,-8.99,-0.28,-6.29,-1.28,-0.66,0.34,-0.03,1731,2019-03-25 16:18:23:860
3.21,-2.03,-8.99,-0.28,-6.29,-1.28,-0.66,0.34,-0.03,1737,2019-03-25 16:18:23:866
3.21,-2.03,-8.99,-0.28,-6.29,-1.28,-0.66,0.34,-0.03,1742,2019-03-25 16:18:23:871
3.43,4.77,-6.53,0.03,0.33,1.13,-1.1,0.29,0.02,1747,2019-03-25 16:18:23:876
3.43,4.77,-6.53,0.03,0.33,1.13,-1.1,0.29,0.02,1751,2019-03-25 16:18:23:880
3.43,4.77,-6.53,0.03,0.33,1.13,-1.1,0.29,0.02,1756,2019-03-25 16:18:23:885
3.43,4.77,-6.53,0.03,0.33,1.13,-1.1,0.29,0.02,1761,2019-03-25 16:18:23:890
3.43,4.77,-6.53,0.03,0.33,1.13,-1.1,0.29,0.02,1766,2019-03-25 16:18:23:895
3.43,4.77,-6.53,0.03,0.33,1.13,-1.1,0.29,0.02,1771,2019-03-25 16:18:23:900
3.53,4.99,-7.42,0.0,0.33,0.07,-1.23,0.51,0.21,1776,2019-03-25 16:18:23:905
3.53,4.99,-7.42,0.0,0.33,0.07,-1.23,0.51,0.21,1781,2019-03-25 16:18:23:910
3.61,5.14,-6.22,-0.02,0.28,0.99,-1.24,0.64,0.11,1787,2019-03-25 16:18:23:916
3.61,5.14,-6.22,-0.02,0.28,0.99,-1.24,0.64,0.11,1792,2019-03-25 16:18:23:921
3.61,5.14,-6.22,-0.02,0.28,0.99,-1.24,0.64,0.11,1797,2019-03-25 16:18:23:926
3.61,5.14,-6.22,-0.02,0.28,0.99,-1.24,0.64,0.11,1801,2019-03-25 16:18:23:930
3.33,4.79,-7.99,-0.38,-0.1,-0.97,-1.04,0.76,0.19,1806,2019-03-25 16:18:23:935
3.33,4.79,-7.99,-0.38,-0.1,-0.97,-1.04,0.76,0.19,1811,2019-03-25 16:18:23:940
3.33,4.79,-7.99,-0.38,-0.1,-0.97,-1.04,0.76,0.19,1816,2019-03-25 16:18:23:945
3.33,4.79,-7.99,-0.38,-0.1,-0.97,-1.04,0.76,0.19,1821,2019-03-25 16:18:23:950
4.08,5.33,-8.41,0.24,0.36,-1.43,-1.26,0.97,0.14,1827,2019-03-25 16:18:23:956
4.08,5.33,-8.41,0.24,0.36,-1.43,-1.26,0.97,0.14,1831,2019-03-25 16:18:23:960
4.08,5.33,-8.41,0.24,0.36,-1.43,-1.26,0.97,0.14,1837,2019-03-25 16:18:23:966
4.08,5.33,-8.41,0.24,0.36,-1.43,-1.26,0.97,0.14,1842,2019-03-25 16:18:23:971
4.82,6.51,-6.41,0.82,1.32,0.32,-1.94,1.12,0.0,1846,2019-03-25 16:18:23:975
4.82,6.51,-6.41,0.82,1.32,0.32,-1.94,1.12,0.0,1851,2019-03-25 16:18:23:980
4.82,6.51,-6.41,0.82,1.32,0.32,-1.94,1.12,0.0,1856,2019-03-25 16:18:23:985
4.82,6.51,-6.41,0.82,1.32,0.32,-1.94,1.12,0.0,1861,2019-03-25 16:18:23:990
4.82,6.51,-6.41,0.82,1.32,0.32,-1.94,1.12,0.0,1867,2019-03-25 16:18:23:996
5.53,7.42,-4.12,1.27,1.82,2.15,-1.86,1.03,-0.1,1872,2019-03-25 16:18:24:001
5.53,7.42,-4.12,1.27,1.82,2.15,-1.86,1.03,-0.1,1877,2019-03-25 16:18:24:006
5.53,7.42,-4.12,1.27,1.82,2.15,-1.86,1.03,-0.1,1881,2019-03-25 16:18:24:010
4.18,6.54,-4.45,1.27,1.82,2.15,-1.18,0.78,-0.23,1886,2019-03-25 16:18:24:015
4.18,6.54,-4.45,-0.18,0.57,1.36,-1.18,0.78,-0.23,1891,2019-03-25 16:18:24:020
4.18,6.54,-4.45,-0.18,0.57,1.36,-1.18,0.78,-0.23,1896,2019-03-25 16:18:24:025
4.18,6.54,-4.45,-0.18,0.57,1.36,-1.18,0.78,-0.23,1901,2019-03-25 16:18:24:030
4.38,6.47,-4.7,-0.06,0.35,0.78,-0.94,0.95,-0.11,1907,2019-03-25 16:18:24:036
4.38,6.47,-4.7,-0.06,0.35,0.78,-0.94,0.95,-0.11,1911,2019-03-25 16:18:24:040
4.38,6.47,-4.7,-0.06,0.35,0.78,-0.94,0.95,-0.11,1917,2019-03-25 16:18:24:046
4.38,6.47,-4.7,-0.06,0.35,0.78,-0.94,0.95,-0.11,1922,2019-03-25 16:18:24:051
4.38,6.47,-4.7,-0.06,0.35,0.78,-0.94,0.95,-0.11,1926,2019-03-25 16:18:24:055
4.38,6.47,-4.7,-0.06,0.35,0.78,-0.94,0.95,-0.11,1931,2019-03-25 16:18:24:060
5.2,7.76,-3.51,0.57,1.07,1.52,-1.12,1.27,-0.26,1936,2019-03-25 16:18:24:065
5.2,7.76,-3.51,0.57,1.07,1.52,-1.12,1.27,-0.26,1941,2019-03-25 16:18:24:070
5.2,7.76,-3.51,0.57,1.07,1.52,-1.12,1.27,-0.26,1946,2019-03-25 16:18:24:075
5.2,7.76,-3.51,0.57,1.07,1.52,-1.12,1.27,-0.26,1952,2019-03-25 16:18:24:081
5.24,6.24,-5.56,0.3,-0.6,-0.9,-1.47,1.54,-0.45,1956,2019-03-25 16:18:24:085
5.24,6.24,-5.56,0.3,-0.6,-0.9,-1.47,1.54,-0.45,1962,2019-03-25 16:18:24:091
5.24,6.24,-5.56,0.3,-0.6,-0.9,-1.47,1.54,-0.45,1967,2019-03-25 16:18:24:096
5.33,6.7,-5.28,0.26,-0.37,-0.98,-1.73,1.61,-0.48,1971,2019-03-25 16:18:24:100
5.33,6.7,-5.28,0.26,-0.37,-0.98,-1.73,1.61,-0.48,1977,2019-03-25 16:18:24:106
5.33,6.7,-5.28,0.26,-0.37,-0.98,-1.73,1.61,-0.48,1982,2019-03-25 16:18:24:111
5.33,6.7,-5.28,0.26,-0.37,-0.98,-1.73,1.61,-0.48,1986,2019-03-25 16:18:24:115
5.49,6.95,-4.19,0.23,-0.33,-0.2,-1.94,1.53,-0.36,1992,2019-03-25 16:18:24:121
5.49,6.95,-4.19,0.23,-0.33,-0.2,-1.94,1.53,-0.36,1998,2019-03-25 16:18:24:127
5.49,6.95,-4.19,0.23,-0.33,-0.2,-1.94,1.53,-0.36,2002,2019-03-25 16:18:24:131
5.37,7.59,-3.65,0.23,-0.33,-0.2,-1.94,1.39,-0.38,2006,2019-03-25 16:18:24:135
5.37,7.59,-3.65,-0.02,0.02,-0.05,-1.94,1.39,-0.38,2012,2019-03-25 16:18:24:141
5.37,7.59,-3.65,-0.02,0.02,-0.05,-1.94,1.39,-0.38,2017,2019-03-25 16:18:24:146
5.37,7.59,-3.65,-0.02,0.02,-0.05,-1.94,1.39,-0.38,2021,2019-03-25 16:18:24:150
4.81,7.2,-2.77,-0.62,-0.54,0.21,-1.91,1.44,-0.43,2027,2019-03-25 16:18:24:156
4.81,7.2,-2.77,-0.62,-0.54,0.21,-1.91,1.44,-0.43,2032,2019-03-25 16:18:24:161
4.81,7.2,-2.77,-0.62,-0.54,0.21,-1.91,1.44,-0.43,2037,2019-03-25 16:18:24:166
4.81,7.2,-2.77,-0.62,-0.54,0.21,-1.91,1.44,-0.43,2041,2019-03-25 16:18:24:170
4.59,7.07,-2.55,-0.8,-0.76,-0.13,-1.93,1.67,-0.37,2046,2019-03-25 16:18:24:175
4.59,7.07,-2.55,-0.8,-0.76,-0.13,-1.93,1.67,-0.37,2052,2019-03-25 16:18:24:181
4.59,7.07,-2.55,-0.8,-0.76,-0.13,-1.93,1.67,-0.37,2057,2019-03-25 16:18:24:186
4.59,7.07,-2.55,-0.8,-0.76,-0.13,-1.93,1.67,-0.37,2062,2019-03-25 16:18:24:191
4.59,7.07,-2.55,-0.8,-0.76,-0.13,-1.93,1.67,-0.37,2066,2019-03-25 16:18:24:195
4.59,7.07,-2.55,-0.8,-0.76,-0.13,-1.93,1.67,-0.37,2071,2019-03-25 16:18:24:200
5.38,7.52,-2.43,0.01,-0.28,-0.38,-2.08,1.94,-0.25,2076,2019-03-25 16:18:24:205
5.38,7.52,-2.43,0.01,-0.28,-0.38,-2.08,1.94,-0.25,2082,2019-03-25 16:18:24:211
5.38,7.52,-2.43,0.01,-0.28,-0.38,-2.08,1.94,-0.25,2086,2019-03-25 16:18:24:215
5.38,7.52,-2.43,0.01,-0.28,-0.38,-2.08,1.94,-0.25,2091,2019-03-25 16:18:24:220
5.7,8.07,-2.01,0.25,0.22,-0.33,-2.16,2.02,-0.19,2096,2019-03-25 16:18:24:225
5.7,8.07,-2.01,0.25,0.22,-0.33,-2.16,2.02,-0.19,2102,2019-03-25 16:18:24:231
5.7,8.07,-2.01,0.25,0.22,-0.33,-2.16,1.96,-0.2,2106,2019-03-25 16:18:24:235
5.7,8.07,-2.01,-0.23,-0.15,0.22,-2.16,1.96,-0.2,2111,2019-03-25 16:18:24:240
5.7,8.07,-2.01,-0.23,-0.15,0.22,-2.16,1.96,-0.2,2116,2019-03-25 16:18:24:245
5.7,8.07,-2.01,-0.23,-0.15,0.22,-2.16,1.96,-0.2,2122,2019-03-25 16:18:24:251
5.14,7.84,-0.52,-0.35,-0.09,0.23,-2.23,1.95,-0.25,2127,2019-03-25 16:18:24:256
5.14,7.84,-0.52,-0.35,-0.09,0.23,-2.23,1.95,-0.25,2131,2019-03-25 16:18:24:260
5.14,7.84,-0.52,-0.35,-0.09,0.23,-2.23,1.95,-0.25,2136,2019-03-25 16:18:24:265
5.14,7.84,-0.52,-0.35,-0.09,0.23,-2.23,1.95,-0.25,2141,2019-03-25 16:18:24:270
4.83,7.12,-0.42,-0.58,-0.78,-0.26,-2.34,2.15,-0.25,2147,2019-03-25 16:18:24:276
4.83,7.12,-0.42,-0.58,-0.78,-0.26,-2.34,2.15,-0.25,2152,2019-03-25 16:18:24:281
4.83,7.12,-0.42,-0.58,-0.78,-0.26,-2.34,2.15,-0.25,2157,2019-03-25 16:18:24:286
4.83,7.12,-0.42,-0.58,-0.78,-0.26,-2.34,2.15,-0.25,2162,2019-03-25 16:18:24:291
4.83,7.12,-0.42,-0.58,-0.78,-0.26,-2.34,2.15,-0.25,2167,2019-03-25 16:18:24:296
4.83,7.12,-0.42,-0.58,-0.78,-0.26,-2.34,2.15,-0.25,2172,2019-03-25 16:18:24:301
4.56,7.94,1.26,-0.58,-0.78,-0.26,-2.76,2.49,-0.2,2176,2019-03-25 16:18:24:305
4.56,7.94,1.26,-0.7,0.04,0.65,-2.76,2.49,-0.2,2181,2019-03-25 16:18:24:310
4.56,7.94,1.26,-0.7,0.04,0.65,-2.76,2.49,-0.2,2186,2019-03-25 16:18:24:315
5.68,8.81,3.45,-0.7,0.04,0.65,-2.8,2.63,-0.01,2191,2019-03-25 16:18:24:320
5.68,8.81,3.45,-0.7,0.04,0.65,-2.8,2.63,-0.01,2196,2019-03-25 16:18:24:325
5.68,8.81,3.45,-0.7,0.04,0.65,-2.8,2.63,-0.01,2202,2019-03-25 16:18:24:331
5.44,8.21,2.41,-0.7,0.04,0.65,-2.06,2.38,-0.09,2207,2019-03-25 16:18:24:336
5.44,8.21,2.41,0.36,0.28,0.06,-2.06,2.38,-0.09,2212,2019-03-25 16:18:24:341
5.44,8.21,2.41,0.36,0.28,0.06,-2.06,2.38,-0.09,2216,2019-03-25 16:18:24:345
5.44,8.21,2.41,0.36,0.28,0.06,-2.06,2.38,-0.09,2222,2019-03-25 16:18:24:351
5.44,8.21,2.41,0.36,0.28,0.06,-2.06,2.38,-0.09,2227,2019-03-25 16:18:24:356
5.44,8.21,2.41,0.36,0.28,0.06,-2.06,2.38,-0.09,2232,2019-03-25 16:18:24:361
5.16,7.76,2.39,0.13,-0.07,-0.41,-1.77,2.06,-0.01,2236,2019-03-25 16:18:24:365
5.16,7.76,2.39,0.13,-0.07,-0.41,-1.77,2.06,-0.01,2242,2019-03-25 16:18:24:371
5.16,7.76,2.39,0.13,-0.07,-0.41,-1.77,2.06,-0.01,2246,2019-03-25 16:18:24:375
5.16,7.76,2.39,0.13,-0.07,-0.41,-1.77,2.06,-0.01,2252,2019-03-25 16:18:24:381
5.16,7.76,2.39,0.13,-0.07,-0.41,-1.77,2.06,-0.01,2257,2019-03-25 16:18:24:386
5.16,7.76,2.39,0.13,-0.07,-0.41,-1.77,2.06,-0.01,2262,2019-03-25 16:18:24:391
4.5,7.55,3.37,-0.33,-0.21,-0.3,-1.35,1.69,-0.15,2267,2019-03-25 16:18:24:396
4.5,7.55,3.37,-0.33,-0.21,-0.3,-1.35,1.69,-0.15,2272,2019-03-25 16:18:24:401
4.5,7.55,3.37,-0.33,-0.21,-0.3,-1.35,1.69,-0.15,2277,2019-03-25 16:18:24:406
4.5,7.55,3.37,-0.33,-0.21,-0.3,-1.35,1.69,-0.15,2282,2019-03-25 16:18:24:411
4.25,7.73,3.12,-0.34,0.05,-0.87,-1.4,1.63,-0.25,2286,2019-03-25 16:18:24:415
4.25,7.73,3.12,-0.34,0.05,-0.87,-1.4,1.63,-0.25,2292,2019-03-25 16:18:24:421
4.25,7.73,3.12,-0.34,0.05,-0.87,-1.4,1.63,-0.25,2297,2019-03-25 16:18:24:426
4.25,7.73,3.12,-0.34,0.05,-0.87,-1.4,1.63,-0.25,2302,2019-03-25 16:18:24:431
4.27,7.09,3.6,-0.11,-0.43,-0.74,-1.55,1.5,-0.21,2307,2019-03-25 16:18:24:436
4.27,7.09,3.6,-0.11,-0.43,-0.74,-1.55,1.5,-0.21,2312,2019-03-25 16:18:24:441
4.27,7.09,3.6,-0.11,-0.43,-0.74,-1.55,1.5,-0.21,2317,2019-03-25 16:18:24:446
4.27,7.09,3.6,-0.11,-0.43,-0.74,-1.55,1.5,-0.21,2321,2019-03-25 16:18:24:450
4.06,6.76,3.92,-0.17,-0.61,-0.71,-1.53,1.28,-0.2,2327,2019-03-25 16:18:24:456
4.06,6.76,3.92,-0.17,-0.61,-0.71,-1.53,1.28,-0.2,2332,2019-03-25 16:18:24:461
4.06,6.76,3.92,-0.17,-0.61,-0.71,-1.53,1.28,-0.2,2336,2019-03-25 16:18:24:465
4.06,6.76,3.92,-0.17,-0.61,-0.71,-1.53,1.28,-0.2,2341,2019-03-25 16:18:24:470
3.43,6.65,4.75,-0.63,-0.64,-0.22,-1.34,0.99,-0.24,2346,2019-03-25 16:18:24:475
3.43,6.65,4.75,-0.63,-0.64,-0.22,-1.34,0.99,-0.24,2352,2019-03-25 16:18:24:481
3.43,6.65,4.75,-0.63,-0.64,-0.22,-1.34,0.99,-0.24,2357,2019-03-25 16:18:24:486
3.43,6.65,4.75,-0.63,-0.64,-0.22,-1.34,0.99,-0.24,2362,2019-03-25 16:18:24:491
3.43,6.65,4.75,-0.63,-0.64,-0.22,-1.34,0.99,-0.24,2367,2019-03-25 16:18:24:496
3.36,6.72,3.94,-0.59,-0.45,-1.17,-1.07,0.88,-0.17,2372,2019-03-25 16:18:24:501
3.36,6.72,3.94,-0.59,-0.45,-1.17,-1.07,0.88,-0.17,2377,2019-03-25 16:18:24:506
3.36,6.72,3.94,-0.59,-0.45,-1.17,-1.07,0.88,-0.17,2382,2019-03-25 16:18:24:511
3.36,6.72,3.94,-0.59,-0.45,-1.17,-1.07,0.88,-0.17,2387,2019-03-25 16:18:24:516
4.08,6.66,3.68,0.25,-0.29,-1.32,-1.17,0.95,0.01,2392,2019-03-25 16:18:24:521
4.08,6.66,3.68,0.25,-0.29,-1.32,-1.17,0.95,0.01,2397,2019-03-25 16:18:24:526
4.08,6.66,3.68,0.25,-0.29,-1.32,-1.17,0.95,0.01,2402,2019-03-25 16:18:24:531
2.49,4.89,2.29,-1.07,-1.63,-2.56,-1.51,0.84,0.02,2406,2019-03-25 16:18:24:535
2.49,4.89,2.29,-1.07,-1.63,-2.56,-1.51,0.84,0.02,2411,2019-03-25 16:18:24:540
2.49,4.89,2.29,-1.07,-1.63,-2.56,-1.51,0.84,0.02,2416,2019-03-25 16:18:24:545
2.49,4.89,2.29,-1.07,-1.63,-2.56,-1.51,0.84,0.02,2421,2019-03-25 16:18:24:550
3.35,5.91,4.34,-0.04,-0.22,-0.72,-2.59,0.92,0.37,2426,2019-03-25 16:18:24:555
3.35,5.91,4.34,-0.04,-0.22,-0.72,-2.59,0.92,0.37,2431,2019-03-25 16:18:24:560
3.35,5.91,4.34,-0.04,-0.22,-0.72,-2.59,0.92,0.37,2437,2019-03-25 16:18:24:566
3.35,5.91,4.34,-0.04,-0.22,-0.72,-2.59,0.92,0.37,2442,2019-03-25 16:18:24:571
5.21,7.61,9.01,1.77,1.77,3.33,-3.09,0.99,0.16,2448,2019-03-25 16:18:24:577
5.21,7.61,9.01,1.77,1.77,3.33,-3.09,0.99,0.16,2452,2019-03-25 16:18:24:581
5.21,7.61,9.01,1.77,1.77,3.33,-3.09,0.99,0.16,2457,2019-03-25 16:18:24:586
5.21,7.61,9.01,1.77,1.77,3.33,-3.09,0.99,0.16,2462,2019-03-25 16:18:24:591
5.21,7.61,9.01,1.77,1.77,3.33,-3.09,0.99,0.16,2467,2019-03-25 16:18:24:596
5.89,7.94,8.66,2.32,2.18,2.36,-2.04,0.51,-0.31,2471,2019-03-25 16:18:24:600
5.89,7.94,8.66,2.32,2.18,2.36,-2.04,0.51,-0.31,2477,2019-03-25 16:18:24:606
5.89,7.94,8.66,2.32,2.18,2.36,-2.04,0.51,-0.31,2482,2019-03-25 16:18:24:611
5.89,7.94,8.66,2.32,2.18,2.36,-2.04,0.51,-0.31,2486,2019-03-25 16:18:24:615
3.17,6.25,6.24,-0.43,0.5,-0.06,0.0,-0.55,-0.55,2492,2019-03-25 16:18:24:621
3.17,6.25,6.24,-0.43,0.5,-0.06,0.0,-0.55,-0.55,2498,2019-03-25 16:18:24:627
3.17,6.25,6.24,-0.43,0.5,-0.06,0.0,-0.55,-0.55,2501,2019-03-25 16:18:24:630
3.09,6.12,7.31,-0.53,0.28,1.02,0.12,-0.97,-0.33,2506,2019-03-25 16:18:24:635
3.09,6.12,7.31,-0.53,0.28,1.02,0.12,-0.97,-0.33,2511,2019-03-25 16:18:24:640
3.09,6.12,7.31,-0.53,0.28,1.02,0.12,-0.97,-0.33,2516,2019-03-25 16:18:24:645
3.09,6.12,7.31,-0.53,0.28,1.02,0.12,-0.97,-0.33,2521,2019-03-25 16:18:24:650
4.36,6.49,6.34,0.64,0.49,0.09,0.51,-0.59,-0.33,2526,2019-03-25 16:18:24:655
4.36,6.49,6.34,0.64,0.49,0.09,0.51,-0.59,-0.33,2532,2019-03-25 16:18:24:661
4.36,6.49,6.34,0.64,0.49,0.09,0.51,-0.59,-0.33,2537,2019-03-25 16:18:24:666
4.36,6.49,6.34,0.64,0.49,0.09,0.51,-0.59,-0.33,2542,2019-03-25 16:18:24:671
4.36,6.49,6.34,0.64,0.49,0.09,0.51,-0.59,-0.33,2547,2019-03-25 16:18:24:676
4.36,6.49,6.34,0.64,0.49,0.09,0.51,-0.59,-0.33,2552,2019-03-25 16:18:24:681
3.97,7.03,6.08,0.15,0.77,0.02,0.84,-0.6,-0.53,2557,2019-03-25 16:18:24:686
3.97,7.03,6.08,0.15,0.77,0.02,0.84,-0.6,-0.53,2562,2019-03-25 16:18:24:691
3.97,7.03,6.08,0.15,0.77,0.02,0.84,-0.6,-0.53,2567,2019-03-25 16:18:24:696
3.97,7.03,6.08,0.15,0.77,0.02,0.84,-0.6,-0.53,2572,2019-03-25 16:18:24:701
4.01,7.06,6.51,0.1,0.52,0.5,0.62,-0.69,-0.59,2577,2019-03-25 16:18:24:706
4.01,7.06,6.51,0.1,0.52,0.5,0.62,-0.69,-0.59,2583,2019-03-25 16:18:24:712
4.01,7.06,6.51,0.1,0.52,0.5,0.5,-0.46,-0.46,2586,2019-03-25 16:18:24:715
4.01,7.06,6.51,0.1,0.52,0.5,0.5,-0.46,-0.46,2591,2019-03-25 16:18:24:720
4.01,7.06,6.51,0.1,0.52,0.5,0.5,-0.46,-0.46,2597,2019-03-25 16:18:24:726
4.01,7.06,6.51,0.1,0.52,0.5,0.5,-0.46,-0.46,2601,2019-03-25 16:18:24:730
3.53,6.51,6.81,-0.49,-0.58,0.33,0.56,-0.28,-0.54,2607,2019-03-25 16:18:24:736
3.53,6.51,6.81,-0.49,-0.58,0.33,0.56,-0.28,-0.54,2612,2019-03-25 16:18:24:741
3.53,6.51,6.81,-0.49,-0.58,0.33,0.56,-0.28,-0.54,2617,2019-03-25 16:18:24:746
3.53,6.51,6.81,-0.49,-0.58,0.33,0.56,-0.28,-0.54,2622,2019-03-25 16:18:24:751
3.72,6.94,6.42,-0.32,-0.38,-0.2,0.55,-0.03,-0.45,2627,2019-03-25 16:18:24:756
3.72,6.94,6.42,-0.32,-0.38,-0.2,0.55,-0.03,-0.45,2632,2019-03-25 16:18:24:761
3.72,6.94,6.42,-0.32,-0.38,-0.2,0.55,-0.03,-0.45,2636,2019-03-25 16:18:24:765
3.72,6.94,6.42,-0.32,-0.38,-0.2,0.55,-0.03,-0.45,2641,2019-03-25 16:18:24:770
4.09,7.03,6.69,0.18,-0.3,0.19,0.34,0.14,-0.35,2647,2019-03-25 16:18:24:776
4.09,7.03,6.69,0.18,-0.3,0.19,0.34,0.14,-0.35,2652,2019-03-25 16:18:24:781
4.09,7.03,6.69,0.18,-0.3,0.19,0.34,0.14,-0.35,2657,2019-03-25 16:18:24:786
4.09,7.03,6.69,0.18,-0.3,0.19,0.34,0.14,-0.35,2663,2019-03-25 16:18:24:792
4.09,7.03,6.69,0.18,-0.3,0.19,0.34,0.14,-0.35,2667,2019-03-25 16:18:24:796
4.09,7.03,6.69,0.18,-0.3,0.19,0.34,0.14,-0.35,2671,2019-03-25 16:18:24:800
3.68,7.11,7.28,0.18,-0.3,0.19,0.34,0.14,-0.35,2676,2019-03-25 16:18:24:805
3.68,7.11,7.28,0.03,-0.07,0.98,0.28,0.12,-0.38,2681,2019-03-25 16:18:24:810
3.68,7.11,7.28,0.03,-0.07,0.98,0.28,0.12,-0.38,2686,2019-03-25 16:18:24:815
3.68,7.11,7.28,0.03,-0.07,0.98,0.28,0.12,-0.38,2691,2019-03-25 16:18:24:820
3.79,7.32,7.61,0.22,0.03,1.09,0.38,0.36,-0.41,2696,2019-03-25 16:18:24:825
3.79,7.32,7.61,0.22,0.03,1.09,0.38,0.36,-0.41,2701,2019-03-25 16:18:24:830
3.79,7.32,7.61,0.22,0.03,1.09,0.63,0.81,-0.39,2706,2019-03-25 16:18:24:835
3.79,7.32,7.61,-0.12,-0.82,-0.23,0.63,0.81,-0.39,2711,2019-03-25 16:18:24:840
3.79,7.32,7.61,-0.12,-0.82,-0.23,0.63,0.81,-0.39,2716,2019-03-25 16:18:24:845
3.79,7.32,7.61,-0.12,-0.82,-0.23,0.63,0.81,-0.39,2721,2019-03-25 16:18:24:850
3.47,5.61,4.86,0.11,-1.71,-1.64,0.72,0.78,-0.27,2726,2019-03-25 16:18:24:855
3.47,5.61,4.86,0.11,-1.71,-1.64,0.72,0.78,-0.27,2732,2019-03-25 16:18:24:861
3.47,5.61,4.86,0.11,-1.71,-1.64,0.72,0.78,-0.27,2737,2019-03-25 16:18:24:866
3.47,5.61,4.86,0.11,-1.71,-1.64,0.72,0.78,-0.27,2741,2019-03-25 16:18:24:870
3.47,5.61,4.86,0.11,-1.71,-1.64,0.72,0.78,-0.27,2747,2019-03-25 16:18:24:876
3.47,5.61,4.86,0.11,-1.71,-1.64,0.72,0.78,-0.27,2752,2019-03-25 16:18:24:881
2.65,6.61,5.9,0.11,-1.71,-1.64,0.61,0.58,-0.06,2756,2019-03-25 16:18:24:885
2.65,6.61,5.9,-0.57,-0.68,-0.57,0.61,0.58,-0.06,2761,2019-03-25 16:18:24:890
2.65,6.61,5.9,-0.57,-0.68,-0.57,0.61,0.58,-0.06,2767,2019-03-25 16:18:24:896
2.65,6.61,5.9,-0.57,-0.68,-0.57,0.61,0.58,-0.06,2772,2019-03-25 16:18:24:901
2.55,6.5,6.44,-0.54,-0.69,-0.03,0.43,0.6,-0.08,2777,2019-03-25 16:18:24:906
2.55,6.5,6.44,-0.54,-0.69,-0.03,0.43,0.6,-0.08,2782,2019-03-25 16:18:24:911
2.55,6.5,6.44,-0.54,-0.69,-0.03,0.57,0.69,0.15,2786,2019-03-25 16:18:24:915
3.61,8.06,6.05,-0.54,-0.69,-0.03,0.57,0.69,0.15,2792,2019-03-25 16:18:24:921
3.61,8.06,6.05,-0.54,-0.69,-0.03,0.57,0.69,0.15,2797,2019-03-25 16:18:24:926
3.61,8.06,6.05,-0.54,-0.69,-0.03,0.57,0.69,0.15,2802,2019-03-25 16:18:24:931
3.61,8.06,6.05,-0.54,-0.69,-0.03,0.57,0.69,0.15,2806,2019-03-25 16:18:24:935
3.61,8.06,6.05,-0.54,-0.69,-0.03,0.57,0.69,0.15,2811,2019-03-25 16:18:24:940
3.61,8.06,6.05,-0.54,-0.69,-0.03,0.57,0.69,0.15,2817,2019-03-25 16:18:24:946
3.26,6.94,5.7,0.33,-0.24,-0.63,0.29,1.39,0.06,2822,2019-03-25 16:18:24:951
3.26,6.94,5.7,0.33,-0.24,-0.63,0.29,1.39,0.06,2827,2019-03-25 16:18:24:956
3.26,6.94,5.7,0.33,-0.24,-0.63,0.29,1.39,0.06,2832,2019-03-25 16:18:24:961
3.26,6.94,5.7,0.33,-0.24,-0.63,0.29,1.39,0.06,2836,2019-03-25 16:18:24:965
3.26,6.94,5.7,0.33,-0.24,-0.63,0.29,1.39,0.06,2841,2019-03-25 16:18:24:970
2.86,7.88,6.19,0.25,0.78,-0.31,-0.14,1.73,0.28,2847,2019-03-25 16:18:24:976
2.86,7.88,6.19,0.25,0.78,-0.31,-0.14,1.73,0.28,2852,2019-03-25 16:18:24:981
2.86,7.88,6.19,0.25,0.78,-0.31,-0.14,1.73,0.28,2857,2019-03-25 16:18:24:986
2.86,7.88,6.19,0.25,0.78,-0.31,-0.14,1.73,0.28,2862,2019-03-25 16:18:24:991
2.86,7.88,6.19,0.25,0.78,-0.31,-0.14,1.73,0.28,2867,2019-03-25 16:18:24:996
2.24,7.25,6.35,-0.2,0.16,-0.14,0.12,1.51,0.39,2871,2019-03-25 16:18:25:000
2.24,7.25,6.35,-0.2,0.16,-0.14,0.12,1.51,0.39,2876,2019-03-25 16:18:25:005
2.24,7.25,6.35,-0.2,0.16,-0.14,0.12,1.51,0.39,2881,2019-03-25 16:18:25:010
2.24,7.25,6.35,-0.2,0.16,-0.14,0.12,1.51,0.39,2887,2019-03-25 16:18:25:016
2.18,7.17,6.33,-0.14,0.13,-0.05,0.3,1.36,0.45,2891,2019-03-25 16:18:25:020
2.18,7.17,6.33,-0.14,0.13,-0.05,0.3,1.36,0.45,2896,2019-03-25 16:18:25:025
2.18,7.17,6.33,-0.14,0.13,-0.05,0.3,1.36,0.45,2901,2019-03-25 16:18:25:030
2.35,7.04,6.61,0.11,0.02,0.27,0.27,1.34,0.38,2907,2019-03-25 16:18:25:036
2.35,7.04,6.61,0.11,0.02,0.27,0.27,1.34,0.38,2912,2019-03-25 16:18:25:041
2.35,7.04,6.61,0.11,0.02,0.27,0.27,1.34,0.38,2917,2019-03-25 16:18:25:046
2.35,7.04,6.61,0.11,0.02,0.27,0.27,1.34,0.38,2921,2019-03-25 16:18:25:050
2.26,6.65,5.52,-0.23,-0.29,-0.22,0.13,1.7,0.28,2926,2019-03-25 16:18:25:055
2.26,6.65,5.52,-0.23,-0.29,-0.22,0.13,1.7,0.28,2931,2019-03-25 16:18:25:060
2.26,6.65,5.52,-0.23,-0.29,-0.22,0.13,1.7,0.28,2936,2019-03-25 16:18:25:065
2.26,6.65,5.52,-0.23,-0.29,-0.22,-0.12,1.98,0.33,2942,2019-03-25 16:18:25:071
2.26,6.65,5.52,-0.23,-0.29,-0.22,-0.12,1.98,0.33,2947,2019-03-25 16:18:25:076
2.26,6.65,5.52,-0.23,-0.29,-0.22,-0.12,1.98,0.33,2951,2019-03-25 16:18:25:080
1.04,6.04,3.58,-0.81,-0.91,-2.6,-0.37,1.66,0.28,2957,2019-03-25 16:18:25:086
1.04,6.04,3.58,-0.81,-0.91,-2.6,-0.37,1.66,0.28,2962,2019-03-25 16:18:25:091
1.04,6.04,3.58,-0.81,-0.91,-2.6,-0.37,1.66,0.28,2967,2019-03-25 16:18:25:096
1.04,6.04,3.58,-0.81,-0.91,-2.6,-0.37,1.66,0.28,2971,2019-03-25 16:18:25:100
1.04,6.04,3.58,-0.81,-0.91,-2.6,-0.37,1.66,0.28,2976,2019-03-25 16:18:25:105
1.04,6.04,3.58,-0.81,-0.91,-2.6,-0.37,1.66,0.28,2981,2019-03-25 16:18:25:110
1.04,6.04,3.58,-0.81,-0.91,-2.6,-0.37,1.66,0.28,2986,2019-03-25 16:18:25:115
1.28,6.39,5.01,-0.51,-0.3,-0.99,-1.02,0.55,0.62,2991,2019-03-25 16:18:25:120
1.28,6.39,5.01,-0.51,-0.3,-0.99,-1.02,0.55,0.62,2996,2019-03-25 16:18:25:125
1.28,6.39,5.01,-0.51,-0.3,-0.99,-1.02,0.55,0.62,3002,2019-03-25 16:18:25:131
1.28,6.39,5.01,-0.51,-0.3,-0.99,-1.02,0.55,0.62,3007,2019-03-25 16:18:25:136
1.28,6.39,5.01,-0.51,-0.3,-0.99,-1.02,0.55,0.62,3012,2019-03-25 16:18:25:141
1.28,6.39,5.01,-0.51,-0.3,-0.99,-1.02,0.55,0.62,3017,2019-03-25 16:18:25:146
1.28,6.39,5.01,-0.51,-0.3,-0.99,-1.02,0.55,0.62,3025,2019-03-25 16:18:25:154
1.28,6.39,5.01,-0.51,-0.3,-0.99,-1.02,0.55,0.62,3027,2019-03-25 16:18:25:156
1.86,6.86,7.23,-0.01,0.41,1.07,-0.67,-0.01,0.8,3032,2019-03-25 16:18:25:161
1.86,6.86,7.23,-0.01,0.41,1.07,-0.67,-0.01,0.8,3036,2019-03-25 16:18:25:165
1.86,6.86,7.23,-0.01,0.41,1.07,-0.67,-0.01,0.8,3041,2019-03-25 16:18:25:170
1.86,6.86,7.23,-0.01,0.41,1.07,-0.67,-0.01,0.8,3046,2019-03-25 16:18:25:175
1.86,6.86,7.23,-0.01,0.41,1.07,-0.67,-0.01,0.8,3051,2019-03-25 16:18:25:180
2.53,7.28,7.27,0.46,0.89,0.96,0.11,0.62,0.8,3057,2019-03-25 16:18:25:186
2.53,7.28,7.27,0.46,0.89,0.96,0.11,0.62,0.8,3062,2019-03-25 16:18:25:191
2.53,7.28,7.27,0.46,0.89,0.96,0.11,0.62,0.8,3067,2019-03-25 16:18:25:196
2.53,7.28,7.27,0.46,0.89,0.96,0.11,0.62,0.8,3072,2019-03-25 16:18:25:201
2.65,6.67,6.74,0.52,0.26,0.46,0.14,0.62,0.68,3076,2019-03-25 16:18:25:205
2.65,6.67,6.74,0.52,0.26,0.46,0.14,0.62,0.68,3081,2019-03-25 16:18:25:210
2.65,6.67,6.74,0.52,0.26,0.46,0.14,0.62,0.68,3087,2019-03-25 16:18:25:216
2.65,6.67,6.74,0.52,0.26,0.46,0.14,0.62,0.68,3092,2019-03-25 16:18:25:221
2.65,6.67,6.74,0.52,0.26,0.46,0.14,0.62,0.68,3097,2019-03-25 16:18:25:226
2.65,6.67,6.74,0.52,0.26,0.46,0.14,0.62,0.68,3102,2019-03-25 16:18:25:231
2.48,6.6,5.99,0.31,0.2,-0.19,0.07,0.59,0.67,3106,2019-03-25 16:18:25:235
2.48,6.6,5.99,0.31,0.2,-0.19,0.07,0.59,0.67,3111,2019-03-25 16:18:25:240
2.48,6.6,5.99,0.31,0.2,-0.19,0.07,0.59,0.67,3117,2019-03-25 16:18:25:246
2.28,6.72,7.67,0.07,0.29,1.46,0.0,0.63,0.62,3122,2019-03-25 16:18:25:251
2.28,6.72,7.67,0.07,0.29,1.46,0.0,0.63,0.62,3127,2019-03-25 16:18:25:256
2.28,6.72,7.67,0.07,0.29,1.46,0.0,0.63,0.62,3132,2019-03-25 16:18:25:261
2.28,6.72,7.67,0.07,0.29,1.46,0.0,0.63,0.62,3137,2019-03-25 16:18:25:266
2.28,6.72,7.67,0.07,0.29,1.46,0.0,0.63,0.62,3142,2019-03-25 16:18:25:271
2.46,6.97,7.79,0.3,0.42,1.2,0.05,1.01,0.56,3146,2019-03-25 16:18:25:275
2.46,6.97,7.79,0.3,0.42,1.2,0.05,1.01,0.56,3152,2019-03-25 16:18:25:281
2.46,6.97,7.79,0.3,0.42,1.2,0.42,0.12,0.4,3157,2019-03-25 16:18:25:286
2.46,6.97,7.79,0.3,0.42,1.2,0.42,0.12,0.4,3162,2019-03-25 16:18:25:291
2.46,6.97,7.79,0.3,0.42,1.2,0.42,0.12,0.4,3167,2019-03-25 16:18:25:296
2.46,6.97,7.79,0.3,0.42,1.2,0.42,0.12,0.4,3171,2019-03-25 16:18:25:300
2.46,6.97,7.79,0.3,0.42,1.2,0.42,0.12,0.4,3177,2019-03-25 16:18:25:306
2.46,6.97,7.79,0.3,0.42,1.2,0.42,0.12,0.4,3182,2019-03-25 16:18:25:311
2.24,6.8,7.15,-0.06,-0.07,0.02,0.45,0.05,0.4,3187,2019-03-25 16:18:25:316
2.24,6.8,7.15,-0.06,-0.07,0.02,0.45,0.05,0.4,3192,2019-03-25 16:18:25:321
2.24,6.8,7.15,-0.06,-0.07,0.02,0.45,0.05,0.4,3197,2019-03-25 16:18:25:326
2.24,6.8,7.15,-0.06,-0.07,0.02,0.45,0.05,0.4,3202,2019-03-25 16:18:25:331
2.15,6.76,6.66,-0.18,-0.14,-0.54,0.28,-0.1,0.37,3206,2019-03-25 16:18:25:335
2.15,6.76,6.66,-0.18,-0.14,-0.54,0.28,-0.1,0.37,3211,2019-03-25 16:18:25:340
2.15,6.76,6.66,-0.18,-0.14,-0.54,0.28,-0.1,0.37,3216,2019-03-25 16:18:25:345
2.15,6.76,6.66,-0.18,-0.14,-0.54,0.28,-0.1,0.37,3222,2019-03-25 16:18:25:351
2.57,6.53,6.75,0.18,-0.35,-0.44,0.04,-0.36,0.36,3226,2019-03-25 16:18:25:355
2.57,6.53,6.75,0.18,-0.35,-0.44,0.04,-0.36,0.36,3232,2019-03-25 16:18:25:361
2.57,6.53,6.75,0.18,-0.35,-0.44,0.04,-0.36,0.36,3237,2019-03-25 16:18:25:366
2.57,6.53,6.75,0.18,-0.35,-0.44,0.04,-0.36,0.36,3241,2019-03-25 16:18:25:370
2.49,6.89,7.18,-0.05,0.07,0.07,-0.03,-0.79,0.43,3247,2019-03-25 16:18:25:376
2.49,6.89,7.18,-0.05,0.07,0.07,-0.03,-0.79,0.43,3252,2019-03-25 16:18:25:381
2.61,6.91,6.73,-0.19,0.18,-0.2,0.05,-1.33,0.4,3257,2019-03-25 16:18:25:386
2.61,6.91,6.73,-0.19,0.18,-0.2,0.05,-1.33,0.4,3262,2019-03-25 16:18:25:391
2.61,6.91,6.73,-0.19,0.18,-0.2,0.05,-1.33,0.4,3266,2019-03-25 16:18:25:395
2.61,6.91,6.73,-0.19,0.18,-0.2,0.05,-1.33,0.4,3272,2019-03-25 16:18:25:401
2.61,6.76,6.32,-0.19,0.18,-0.2,0.05,-1.33,0.44,3276,2019-03-25 16:18:25:405
2.58,6.76,6.32,-0.36,0.0,-0.48,0.61,-2.55,0.44,3281,2019-03-25 16:18:25:410
2.58,6.76,6.32,-0.36,0.0,-0.48,0.61,-2.55,0.44,3286,2019-03-25 16:18:25:415
2.58,6.76,6.32,-0.36,0.0,-0.48,0.61,-2.55,0.44,3291,2019-03-25 16:18:25:420
2.37,6.75,5.2,-0.91,-0.12,-1.22,1.26,-3.32,0.36,3297,2019-03-25 16:18:25:426
2.37,6.75,5.2,-0.91,-0.12,-1.22,1.26,-3.32,0.36,3302,2019-03-25 16:18:25:431
2.37,6.75,5.2,-0.91,-0.12,-1.22,1.26,-3.32,0.36,3307,2019-03-25 16:18:25:436
2.37,6.75,5.2,-0.91,-0.12,-1.22,1.26,-3.32,0.36,3312,2019-03-25 16:18:25:441
3.97,6.23,4.0,-0.91,-0.12,-1.22,1.41,-3.45,0.33,3317,2019-03-25 16:18:25:446
3.97,6.23,4.0,0.28,-0.73,-1.78,1.41,-3.45,0.33,3321,2019-03-25 16:18:25:450
3.97,6.23,4.0,0.28,-0.73,-1.78,1.41,-3.45,0.33,3327,2019-03-25 16:18:25:456
3.97,6.23,4.0,0.28,-0.73,-1.78,1.41,-3.45,0.33,3332,2019-03-25 16:18:25:461
3.97,6.23,4.0,0.28,-0.73,-1.78,1.41,-3.45,0.33,3336,2019-03-25 16:18:25:465
3.97,6.23,4.0,0.28,-0.73,-1.78,1.41,-3.45,0.33,3341,2019-03-25 16:18:25:470
4.46,6.28,2.69,0.35,-0.66,-2.33,1.01,-3.13,0.41,3346,2019-03-25 16:18:25:475
4.46,6.28,2.69,0.35,-0.66,-2.33,1.01,-3.13,0.41,3352,2019-03-25 16:18:25:481
4.46,6.28,2.69,0.35,-0.66,-2.33,1.01,-3.13,0.41,3356,2019-03-25 16:18:25:485
4.9,6.84,4.29,0.35,-0.66,-2.33,0.96,-3.67,0.18,3361,2019-03-25 16:18:25:490
4.9,6.84,4.29,0.35,-0.66,-2.33,0.96,-3.67,0.18,3366,2019-03-25 16:18:25:495
4.9,6.84,4.29,0.35,-0.66,-2.33,0.96,-3.67,0.18,3371,2019-03-25 16:18:25:500
5.15,7.21,4.31,0.25,0.24,0.56,1.15,-3.33,0.04,3376,2019-03-25 16:18:25:505
5.15,7.21,4.31,0.25,0.24,0.56,1.15,-3.33,0.04,3381,2019-03-25 16:18:25:510
5.15,7.21,4.31,0.25,0.24,0.56,1.15,-3.33,0.04,3387,2019-03-25 16:18:25:516
5.15,7.21,4.31,0.25,0.24,0.56,1.15,-3.33,0.04,3392,2019-03-25 16:18:25:521
4.96,7.58,3.88,-0.14,0.46,0.64,1.41,-2.91,-0.25,3396,2019-03-25 16:18:25:525
4.96,7.58,3.88,-0.14,0.46,0.64,1.41,-2.91,-0.25,3402,2019-03-25 16:18:25:531
4.96,7.58,3.88,-0.14,0.46,0.64,1.41,-2.91,-0.25,3406,2019-03-25 16:18:25:535
4.96,7.58,3.88,-0.14,0.46,0.64,1.41,-2.91,-0.25,3411,2019-03-25 16:18:25:540
4.96,7.58,3.88,-0.14,0.46,0.64,1.41,-2.91,-0.25,3416,2019-03-25 16:18:25:545
5.01,8.08,3.88,-0.2,0.76,1.09,1.52,-2.66,-0.37,3421,2019-03-25 16:18:25:550
5.01,8.08,3.88,-0.2,0.76,1.09,1.52,-2.66,-0.37,3426,2019-03-25 16:18:25:555
5.01,8.08,3.88,-0.2,0.76,1.09,1.52,-2.66,-0.37,3431,2019-03-25 16:18:25:560
5.01,8.08,3.88,-0.2,0.76,1.09,1.52,-2.66,-0.37,3436,2019-03-25 16:18:25:565
5.22,8.03,2.79,-0.04,0.52,0.57,1.71,-2.72,-0.43,3441,2019-03-25 16:18:25:570
5.22,8.03,2.79,-0.04,0.52,0.57,1.71,-2.72,-0.43,3446,2019-03-25 16:18:25:575
5.22,8.03,2.79,-0.04,0.52,0.57,1.71,-2.72,-0.43,3451,2019-03-25 16:18:25:580
5.53,7.77,1.69,-0.04,0.52,0.57,1.91,-2.71,-0.38,3456,2019-03-25 16:18:25:585
5.53,7.77,1.69,0.2,0.1,0.11,1.91,-2.71,-0.38,3461,2019-03-25 16:18:25:590
5.53,7.77,1.69,0.2,0.1,0.11,1.91,-2.71,-0.38,3466,2019-03-25 16:18:25:595
5.53,7.77,1.69,0.2,0.1,0.11,1.91,-2.71,-0.38,3471,2019-03-25 16:18:25:600
6.38,7.52,0.63,0.91,-0.23,-0.25,2.06,-2.7,-0.38,3476,2019-03-25 16:18:25:605
6.38,7.52,0.63,0.91,-0.23,-0.25,2.06,-2.7,-0.38,3481,2019-03-25 16:18:25:610
6.38,7.52,0.63,0.91,-0.23,-0.25,2.06,-2.7,-0.38,3487,2019-03-25 16:18:25:616
6.38,7.52,0.63,0.91,-0.23,-0.25,2.06,-2.7,-0.38,3492,2019-03-25 16:18:25:621
6.34,7.82,-0.21,0.73,0.05,-0.38,1.95,-2.84,-0.42,3496,2019-03-25 16:18:25:625
6.34,7.82,-0.21,0.73,0.05,-0.38,1.95,-2.84,-0.42,3501,2019-03-25 16:18:25:630
6.34,7.82,-0.21,0.73,0.05,-0.38,1.95,-2.84,-0.42,3506,2019-03-25 16:18:25:635
6.34,7.82,-0.21,0.73,0.05,-0.38,1.95,-2.84,-0.42,3511,2019-03-25 16:18:25:640
6.34,7.82,-0.21,0.73,0.05,-0.38,1.95,-2.84,-0.42,3516,2019-03-25 16:18:25:645
6.61,8.56,0.89,0.88,0.62,1.16,1.62,-2.87,-0.44,3521,2019-03-25 16:18:25:650
6.61,8.56,0.89,0.88,0.62,1.16,1.62,-2.87,-0.44,3526,2019-03-25 16:18:25:655
6.61,8.56,0.89,0.88,0.62,1.16,1.62,-2.87,-0.44,3531,2019-03-25 16:18:25:660
6.61,8.56,0.89,0.88,0.62,1.16,1.62,-2.87,-0.44,3536,2019-03-25 16:18:25:665
6.61,8.56,0.89,0.88,0.62,1.16,1.62,-2.87,-0.44,3542,2019-03-25 16:18:25:671
6.12,7.9,1.45,0.46,-0.19,1.88,1.49,-2.53,-0.75,3547,2019-03-25 16:18:25:676
6.12,7.9,1.45,0.46,-0.19,1.88,1.49,-2.53,-0.75,3552,2019-03-25 16:18:25:681
6.12,7.9,1.45,0.46,-0.19,1.88,1.49,-2.53,-0.75,3556,2019-03-25 16:18:25:685
6.12,7.9,1.45,0.46,-0.19,1.88,1.49,-2.53,-0.75,3561,2019-03-25 16:18:25:690
6.12,7.9,1.45,0.46,-0.19,1.88,1.49,-2.53,-0.75,3568,2019-03-25 16:18:25:697
5.13,8.13,1.3,-0.37,-0.06,1.89,1.55,-2.39,-0.77,3571,2019-03-25 16:18:25:700
5.13,8.13,1.3,-0.37,-0.06,1.89,1.55,-2.39,-0.77,3576,2019-03-25 16:18:25:705
5.13,8.13,1.3,-0.37,-0.06,1.89,1.55,-2.39,-0.77,3582,2019-03-25 16:18:25:711
5.13,8.13,1.3,-0.37,-0.06,1.89,1.55,-2.39,-0.77,3587,2019-03-25 16:18:25:716
3.89,7.71,0.21,-1.35,-0.5,1.13,1.57,-2.18,-0.68,3592,2019-03-25 16:18:25:721
3.89,7.71,0.21,-1.35,-0.5,1.13,1.57,-2.18,-0.68,3596,2019-03-25 16:18:25:725
3.89,7.71,0.21,-1.35,-0.5,1.13,1.57,-2.18,-0.68,3601,2019-03-25 16:18:25:730
3.89,7.71,0.21,-1.35,-0.5,1.13,1.57,-2.18,-0.68,3607,2019-03-25 16:18:25:736
3.89,7.71,0.21,-1.35,-0.5,1.13,1.57,-2.18,-0.68,3612,2019-03-25 16:18:25:741
3.96,6.87,-0.24,-0.87,-1.04,1.13,1.18,-1.16,-0.37,3617,2019-03-25 16:18:25:746
3.96,6.87,-0.24,-0.87,-1.04,1.13,1.18,-1.16,-0.37,3622,2019-03-25 16:18:25:751
3.96,6.87,-0.24,-0.87,-1.04,1.13,1.18,-1.16,-0.37,3627,2019-03-25 16:18:25:756
3.96,6.87,-0.24,-0.87,-1.04,1.13,1.18,-1.16,-0.37,3632,2019-03-25 16:18:25:761
4.08,6.82,-0.1,-0.61,-0.91,1.32,0.85,-0.69,-0.52,3637,2019-03-25 16:18:25:766
4.08,6.82,-0.1,-0.61,-0.91,1.32,0.85,-0.69,-0.52,3642,2019-03-25 16:18:25:771
4.08,6.82,-0.1,-0.61,-0.91,1.32,0.85,-0.69,-0.52,3647,2019-03-25 16:18:25:776
4.08,6.82,-0.1,-0.61,-0.91,1.32,0.85,-0.69,-0.52,3652,2019-03-25 16:18:25:781
3.98,6.82,-0.82,-0.57,-0.76,0.56,0.74,-0.34,-0.4,3657,2019-03-25 16:18:25:786
3.98,6.82,-0.82,-0.57,-0.76,0.56,0.74,-0.34,-0.4,3662,2019-03-25 16:18:25:791
3.98,6.82,-0.82,-0.57,-0.76,0.56,0.74,-0.34,-0.4,3667,2019-03-25 16:18:25:796
3.98,6.82,-0.82,-0.57,-0.76,0.56,0.74,-0.34,-0.4,3672,2019-03-25 16:18:25:801
3.76,6.53,-1.66,-0.58,-0.89,-0.28,0.79,-0.38,-0.25,3676,2019-03-25 16:18:25:805
3.76,6.53,-1.66,-0.58,-0.89,-0.28,0.79,-0.38,-0.25,3682,2019-03-25 16:18:25:811
3.76,6.53,-1.66,-0.58,-0.89,-0.28,0.79,-0.38,-0.25,3687,2019-03-25 16:18:25:816
3.76,6.53,-1.66,-0.58,-0.89,-0.28,0.79,-0.38,-0.25,3692,2019-03-25 16:18:25:821
3.99,6.84,-1.77,-0.16,-0.5,-0.47,0.79,-0.43,-0.24,3697,2019-03-25 16:18:25:826
3.99,6.84,-1.77,-0.16,-0.5,-0.47,0.79,-0.43,-0.24,3702,2019-03-25 16:18:25:831
3.99,6.84,-1.77,-0.16,-0.5,-0.47,0.79,-0.43,-0.24,3707,2019-03-25 16:18:25:836
3.99,6.84,-1.77,-0.16,-0.5,-0.47,0.79,-0.43,-0.24,3712,2019-03-25 16:18:25:841
3.99,6.84,-1.77,-0.16,-0.5,-0.47,0.79,-0.43,-0.24,3716,2019-03-25 16:18:25:845
5.06,7.54,-2.72,1.08,0.32,-1.31,0.85,-0.35,-0.5,3721,2019-03-25 16:18:25:850
5.06,7.54,-2.72,1.08,0.32,-1.31,0.85,-0.35,-0.5,3727,2019-03-25 16:18:25:856
5.06,7.54,-2.72,1.08,0.32,-1.31,0.85,-0.35,-0.5,3732,2019-03-25 16:18:25:861
5.06,7.54,-2.72,1.08,0.32,-1.31,0.85,-0.35,-0.5,3736,2019-03-25 16:18:25:865
5.06,7.54,-2.72,1.08,0.32,-1.31,0.85,-0.35,-0.5,3741,2019-03-25 16:18:25:870
4.51,8.02,-2.7,0.73,0.8,-1.02,0.86,-0.32,-0.98,3747,2019-03-25 16:18:25:876
4.51,8.02,-2.7,0.73,0.8,-1.02,0.86,-0.32,-0.98,3752,2019-03-25 16:18:25:881
2.67,8.1,-3.8,0.73,0.8,-1.02,0.86,-0.33,-1.38,3756,2019-03-25 16:18:25:885
2.67,8.1,-3.8,0.73,0.8,-1.02,0.86,-0.33,-1.38,3761,2019-03-25 16:18:25:890
2.67,8.1,-3.8,0.73,0.8,-1.02,0.86,-0.33,-1.38,3767,2019-03-25 16:18:25:896
2.67,8.1,-3.8,0.73,0.8,-1.02,0.86,-0.33,-1.38,3772,2019-03-25 16:18:25:901
2.67,8.1,-3.8,0.73,0.8,-1.02,0.86,-0.33,-1.38,3777,2019-03-25 16:18:25:906
2.67,8.1,-3.8,0.73,0.8,-1.02,0.86,-0.33,-1.38,3782,2019-03-25 16:18:25:911
2.67,8.1,-3.8,0.73,0.8,-1.02,0.86,-0.33,-1.38,3786,2019-03-25 16:18:25:915
2.25,7.37,-4.18,-0.97,0.06,-1.73,0.88,-0.56,-1.3,3792,2019-03-25 16:18:25:921
2.25,7.37,-4.18,-0.97,0.06,-1.73,0.88,-0.56,-1.3,3797,2019-03-25 16:18:25:926
2.25,7.37,-4.18,-0.97,0.06,-1.73,0.88,-0.56,-1.3,3802,2019-03-25 16:18:25:931
2.25,7.37,-4.18,-0.97,0.06,-1.73,0.88,-0.56,-1.3,3807,2019-03-25 16:18:25:936
2.25,7.37,-4.18,-0.97,0.06,-1.73,0.88,-0.56,-1.3,3811,2019-03-25 16:18:25:940
2.25,7.37,-4.18,-0.97,0.06,-1.73,0.88,-0.56,-1.3,3817,2019-03-25 16:18:25:946
2.25,7.37,-4.18,-0.97,0.06,-1.73,0.88,-0.56,-1.3,3822,2019-03-25 16:18:25:951
1.75,7.94,-2.31,-1.0,0.54,0.8,0.87,-0.87,-0.89,3827,2019-03-25 16:18:25:956
1.75,7.94,-2.31,-1.0,0.54,0.8,0.87,-0.87,-0.89,3832,2019-03-25 16:18:25:961
1.75,7.94,-2.31,-1.0,0.54,0.8,1.12,-0.01,-0.92,3837,2019-03-25 16:18:25:966
1.75,7.94,-2.31,-1.0,0.54,0.8,1.12,-0.01,-0.92,3842,2019-03-25 16:18:25:971
1.75,7.94,-2.31,-1.0,0.54,0.8,1.12,-0.01,-0.92,3847,2019-03-25 16:18:25:976
1.75,7.94,-2.31,-1.0,0.54,0.8,1.12,-0.01,-0.92,3851,2019-03-25 16:18:25:980
4.35,6.6,-5.64,1.82,-0.87,-1.73,0.08,0.24,-0.69,3857,2019-03-25 16:18:25:986
4.35,6.6,-5.64,1.82,-0.87,-1.73,0.08,0.24,-0.69,3862,2019-03-25 16:18:25:991
4.35,6.6,-5.64,1.82,-0.87,-1.73,0.08,0.24,-0.69,3867,2019-03-25 16:18:25:996
4.35,6.6,-5.64,1.82,-0.87,-1.73,0.08,0.24,-0.69,3872,2019-03-25 16:18:26:001
4.35,6.6,-5.64,1.82,-0.87,-1.73,0.08,0.24,-0.69,3877,2019-03-25 16:18:26:006
4.35,6.6,-5.64,1.82,-0.87,-1.73,0.08,0.24,-0.69,3882,2019-03-25 16:18:26:011
4.04,8.45,-4.5,1.42,0.79,-0.48,-0.39,-0.29,-0.46,3886,2019-03-25 16:18:26:015
4.04,8.45,-4.5,1.42,0.79,-0.48,-0.39,-0.29,-0.46,3892,2019-03-25 16:18:26:021
2.93,9.17,-6.3,1.42,0.79,-0.48,0.44,-0.24,-0.47,3897,2019-03-25 16:18:26:026
2.93,9.17,-6.3,0.43,1.14,-1.91,0.44,-0.24,-0.47,3901,2019-03-25 16:18:26:030
2.93,9.17,-6.3,0.43,1.14,-1.91,0.44,-0.24,-0.47,3907,2019-03-25 16:18:26:036
2.93,9.17,-6.3,0.43,1.14,-1.91,0.44,-0.24,-0.47,3912,2019-03-25 16:18:26:041
2.93,9.17,-6.3,0.43,1.14,-1.91,0.44,-0.24,-0.47,3917,2019-03-25 16:18:26:046
3.01,9.06,-6.58,0.57,0.97,-2.0,0.66,0.0,-0.45,3922,2019-03-25 16:18:26:051
3.01,9.06,-6.58,0.57,0.97,-2.0,0.66,0.0,-0.45,3927,2019-03-25 16:18:26:056
3.01,9.06,-6.58,0.57,0.97,-2.0,0.66,0.0,-0.45,3932,2019-03-25 16:18:26:061
1.97,9.0,-4.39,-0.27,0.83,0.39,0.24,-0.49,-0.31,3937,2019-03-25 16:18:26:066
1.97,9.0,-4.39,-0.27,0.83,0.39,0.24,-0.49,-0.31,3941,2019-03-25 16:18:26:070
1.97,9.0,-4.39,-0.27,0.83,0.39,0.24,-0.49,-0.31,3947,2019-03-25 16:18:26:076
1.97,9.0,-4.39,-0.27,0.83,0.39,0.24,-0.49,-0.31,3952,2019-03-25 16:18:26:081
1.33,8.62,-3.76,-0.74,0.42,1.01,0.2,-0.38,-0.16,3957,2019-03-25 16:18:26:086
1.33,8.62,-3.76,-0.74,0.42,1.01,0.2,-0.38,-0.16,3962,2019-03-25 16:18:26:091
1.33,8.62,-3.76,-0.74,0.42,1.01,0.2,-0.38,-0.16,3967,2019-03-25 16:18:26:096
1.33,8.62,-3.76,-0.74,0.42,1.01,0.2,-0.38,-0.16,3971,2019-03-25 16:18:26:100
1.28,8.78,-3.76,-0.76,0.51,0.95,0.32,-0.46,-0.02,3976,2019-03-25 16:18:26:105
1.28,8.78,-3.76,-0.76,0.51,0.95,0.32,-0.46,-0.02,3982,2019-03-25 16:18:26:111
1.28,8.78,-3.76,-0.76,0.51,0.95,0.32,-0.46,-0.02,3987,2019-03-25 16:18:26:116
1.28,8.78,-3.76,-0.76,0.51,0.95,0.32,-0.46,-0.02,3992,2019-03-25 16:18:26:121
1.25,8.79,-2.56,-0.71,0.42,2.03,0.18,-0.29,0.0,3997,2019-03-25 16:18:26:126
1.25,8.79,-2.56,-0.71,0.42,2.03,0.18,-0.29,0.0,4002,2019-03-25 16:18:26:131
1.25,8.79,-2.56,-0.71,0.42,2.03,0.18,-0.29,0.0,4006,2019-03-25 16:18:26:135
1.25,8.79,-2.56,-0.71,0.42,2.03,0.18,-0.29,0.0,4011,2019-03-25 16:18:26:140
1.25,8.79,-2.56,-0.71,0.42,2.03,0.18,-0.29,0.0,4016,2019-03-25 16:18:26:145
1.94,8.67,-2.78,-0.12,0.18,1.77,0.07,0.42,0.04,4021,2019-03-25 16:18:26:150
1.94,8.67,-2.78,-0.12,0.18,1.77,0.07,0.42,0.04,4027,2019-03-25 16:18:26:156
1.94,8.67,-2.78,-0.12,0.18,1.77,0.07,0.42,0.04,4032,2019-03-25 16:18:26:161
1.94,8.67,-2.78,-0.12,0.18,1.77,0.07,0.42,0.04,4037,2019-03-25 16:18:26:166
2.77,8.36,-4.03,0.54,-0.09,0.47,0.31,0.35,0.15,4042,2019-03-25 16:18:26:171
2.77,8.36,-4.03,0.54,-0.09,0.47,0.31,0.35,0.15,4047,2019-03-25 16:18:26:176
2.14,8.46,-4.59,0.54,-0.09,0.47,0.31,0.35,0.15,4052,2019-03-25 16:18:26:181
2.14,8.46,-4.59,-0.07,-0.17,-0.19,0.67,-0.58,0.36,4056,2019-03-25 16:18:26:185
2.14,8.46,-4.59,-0.07,-0.17,-0.19,0.67,-0.58,0.36,4062,2019-03-25 16:18:26:191
2.14,8.46,-4.59,-0.07,-0.17,-0.19,0.67,-0.58,0.36,4066,2019-03-25 16:18:26:195
2.14,8.46,-4.59,-0.07,-0.17,-0.19,0.67,-0.58,0.36,4071,2019-03-25 16:18:26:200
2.14,8.46,-4.59,-0.07,-0.17,-0.19,0.67,-0.58,0.36,4076,2019-03-25 16:18:26:205
2.14,8.46,-4.59,-0.07,-0.17,-0.19,0.67,-0.58,0.36,4082,2019-03-25 16:18:26:211
1.36,8.56,-4.91,-0.61,-0.07,-0.38,0.65,-1.17,0.42,4087,2019-03-25 16:18:26:216
1.36,8.56,-4.91,-0.61,-0.07,-0.38,0.65,-1.17,0.42,4091,2019-03-25 16:18:26:220
1.36,8.56,-4.91,-0.61,-0.07,-0.38,0.04,-0.92,0.27,4097,2019-03-25 16:18:26:226
1.36,8.56,-4.91,-0.61,-0.07,-0.38,0.04,-0.92,0.27,4102,2019-03-25 16:18:26:231
1.36,8.56,-4.91,-0.61,-0.07,-0.38,0.04,-0.92,0.27,4107,2019-03-25 16:18:26:236
1.36,8.56,-4.91,-0.61,-0.07,-0.38,0.04,-0.92,0.27,4111,2019-03-25 16:18:26:240
1.36,8.56,-4.91,-0.61,-0.07,-0.38,0.04,-0.92,0.27,4116,2019-03-25 16:18:26:245
-0.6,7.64,-3.75,-2.1,-0.78,0.44,0.04,-0.65,0.19,4123,2019-03-25 16:18:26:252
-0.6,7.64,-3.75,-2.1,-0.78,0.44,0.04,-0.65,0.19,4127,2019-03-25 16:18:26:256
-0.6,7.64,-3.75,-2.1,-0.78,0.44,0.04,-0.65,0.19,4132,2019-03-25 16:18:26:261
-0.6,7.64,-3.75,-2.1,-0.78,0.44,0.04,-0.65,0.19,4136,2019-03-25 16:18:26:265
0.95,8.27,-3.07,-0.46,-0.08,0.93,0.26,-0.46,0.2,4142,2019-03-25 16:18:26:271
0.95,8.27,-3.07,-0.46,-0.08,0.93,0.26,-0.46,0.2,4146,2019-03-25 16:18:26:275
0.95,8.27,-3.07,-0.46,-0.08,0.93,0.26,-0.46,0.2,4151,2019-03-25 16:18:26:280
0.95,8.27,-3.07,-0.46,-0.08,0.93,0.26,-0.46,0.2,4157,2019-03-25 16:18:26:286
0.95,8.27,-3.07,-0.46,-0.08,0.93,0.26,-0.46,0.2,4162,2019-03-25 16:18:26:291
0.95,8.27,-3.07,-0.46,-0.08,0.93,0.26,-0.46,0.2,4167,2019-03-25 16:18:26:296
1.54,8.38,-4.25,0.18,0.09,-0.18,0.53,-0.73,0.04,4172,2019-03-25 16:18:26:301
1.54,8.38,-4.25,0.18,0.09,-0.18,0.53,-0.73,0.04,4176,2019-03-25 16:18:26:305
1.54,8.38,-4.25,0.18,0.09,-0.18,0.53,-0.73,0.04,4182,2019-03-25 16:18:26:311
1.54,8.38,-4.25,0.18,0.09,-0.18,0.53,-0.73,0.04,4187,2019-03-25 16:18:26:316
1.54,8.38,-4.25,0.18,0.09,-0.18,0.53,-0.73,0.04,4192,2019-03-25 16:18:26:321
1.52,8.1,-5.75,0.36,-0.1,-1.31,-0.72,-1.02,-0.07,4197,2019-03-25 16:18:26:326
1.52,8.1,-5.75,0.36,-0.1,-1.31,-0.72,-1.02,-0.07,4202,2019-03-25 16:18:26:331
1.52,8.1,-5.75,0.36,-0.1,-1.31,-0.72,-1.02,-0.07,4207,2019-03-25 16:18:26:336
1.52,8.1,-5.75,0.36,-0.1,-1.31,-0.72,-1.02,-0.07,4212,2019-03-25 16:18:26:341
1.52,8.1,-5.75,0.36,-0.1,-1.31,-0.72,-1.02,-0.07,4217,2019-03-25 16:18:26:346
1.36,8.66,-3.36,0.35,0.31,1.11,-1.32,-1.71,0.01,4221,2019-03-25 16:18:26:350
1.36,8.66,-3.36,0.35,0.31,1.11,-1.32,-1.71,0.01,4226,2019-03-25 16:18:26:355
1.36,8.66,-3.36,0.35,0.31,1.11,-1.32,-1.71,0.01,4231,2019-03-25 16:18:26:360
1.36,8.66,-3.36,0.35,0.31,1.11,-1.32,-1.71,0.01,4236,2019-03-25 16:18:26:365
1.36,8.66,-3.36,0.35,0.31,1.11,-1.32,-1.71,0.01,4242,2019-03-25 16:18:26:371
1.36,8.66,-3.36,0.35,0.31,1.11,-1.32,-1.71,0.01,4247,2019-03-25 16:18:26:376
1.36,8.66,-3.36,0.35,0.31,1.11,-1.32,-1.71,0.01,4251,2019-03-25 16:18:26:380
1.36,8.66,-3.36,0.35,0.31,1.11,-1.32,-1.71,0.01,4256,2019-03-25 16:18:26:385
1.36,8.66,-3.36,0.35,0.31,1.11,-1.32,-1.71,0.01,4261,2019-03-25 16:18:26:390
1.36,8.66,-3.36,0.35,0.31,1.11,-1.32,-1.71,0.01,4266,2019-03-25 16:18:26:395
2.39,6.98,-6.24,1.43,-1.28,-2.19,0.42,1.63,-0.38,4271,2019-03-25 16:18:26:400
2.39,6.98,-6.24,1.43,-1.28,-2.19,0.42,1.63,-0.38,4277,2019-03-25 16:18:26:406
2.39,6.98,-6.24,1.43,-1.28,-2.19,0.42,1.63,-0.38,4282,2019-03-25 16:18:26:411
2.39,6.98,-6.24,1.43,-1.28,-2.19,0.42,1.63,-0.38,4286,2019-03-25 16:18:26:415
0.84,7.35,-4.59,-0.11,-0.79,-0.54,-0.19,-0.01,-0.42,4291,2019-03-25 16:18:26:420
0.84,7.35,-4.59,-0.11,-0.79,-0.54,-0.19,-0.01,-0.42,4297,2019-03-25 16:18:26:426
0.84,7.35,-4.59,-0.11,-0.79,-0.54,-0.19,-0.01,-0.42,4302,2019-03-25 16:18:26:431
0.84,7.35,-4.59,0.05,-0.85,-0.46,-0.19,-0.01,-0.42,4306,2019-03-25 16:18:26:435
0.84,7.35,-4.59,0.05,-0.85,-0.46,-0.19,-0.01,-0.42,4311,2019-03-25 16:18:26:440
0.84,7.35,-4.59,0.05,-0.85,-0.46,-0.19,-0.01,-0.42,4316,2019-03-25 16:18:26:445
0.84,7.35,-4.59,0.05,-0.85,-0.46,-0.19,-0.01,-0.42,4321,2019-03-25 16:18:26:450
1.29,6.89,-4.77,0.26,-1.02,-0.56,0.16,-0.17,-0.4,4327,2019-03-25 16:18:26:456
1.29,6.89,-4.77,0.26,-1.02,-0.56,0.16,-0.17,-0.4,4332,2019-03-25 16:18:26:461
1.29,6.89,-4.77,0.26,-1.02,-0.56,0.16,-0.17,-0.4,4337,2019-03-25 16:18:26:466
1.29,6.89,-4.77,0.26,-1.02,-0.56,0.16,-0.17,-0.4,4342,2019-03-25 16:18:26:471
1.99,5.9,-5.56,0.91,-1.78,-1.1,-0.05,-0.21,-0.47,4347,2019-03-25 16:18:26:476
1.99,5.9,-5.56,0.91,-1.78,-1.1,-0.05,-0.21,-0.47,4351,2019-03-25 16:18:26:480
1.99,5.9,-5.56,0.91,-1.78,-1.1,0.03,-0.32,-0.58,4357,2019-03-25 16:18:26:486
1.99,5.9,-5.56,0.91,-1.78,-1.1,0.03,-0.32,-0.58,4362,2019-03-25 16:18:26:491
1.99,5.9,-5.56,0.91,-1.78,-1.1,0.03,-0.32,-0.58,4367,2019-03-25 16:18:26:496
1.99,5.9,-5.56,0.91,-1.78,-1.1,0.03,-0.32,-0.58,4372,2019-03-25 16:18:26:501
1.99,5.9,-5.56,0.91,-1.78,-1.1,0.03,-0.32,-0.58,4377,2019-03-25 16:18:26:506
1.99,5.9,-5.56,0.91,-1.78,-1.1,0.03,-0.32,-0.58,4382,2019-03-25 16:18:26:511
0.69,7.4,-4.24,-0.31,0.07,0.39,0.49,-0.47,-0.35,4386,2019-03-25 16:18:26:515
0.69,7.4,-4.24,-0.31,0.07,0.39,0.49,-0.47,-0.35,4391,2019-03-25 16:18:26:520
0.69,7.4,-4.24,-0.31,0.07,0.39,0.66,-1.02,-0.45,4397,2019-03-25 16:18:26:526
0.69,7.4,-4.24,-0.31,0.07,0.39,0.66,-1.02,-0.45,4401,2019-03-25 16:18:26:530
0.69,7.4,-4.24,-0.31,0.07,0.39,0.66,-1.02,-0.45,4406,2019-03-25 16:18:26:535
0.69,7.4,-4.24,-0.31,0.07,0.39,0.66,-1.02,-0.45,4412,2019-03-25 16:18:26:541
0.69,7.4,-4.24,-0.31,0.07,0.39,0.66,-1.02,-0.45,4417,2019-03-25 16:18:26:546
0.69,7.4,-4.24,-0.31,0.07,0.39,0.66,-1.02,-0.45,4422,2019-03-25 16:18:26:551
-0.39,8.02,-3.08,-1.05,0.95,1.34,0.68,-0.82,-0.65,4427,2019-03-25 16:18:26:556
-0.39,8.02,-3.08,-1.05,0.95,1.34,0.68,-0.82,-0.65,4432,2019-03-25 16:18:26:561
-0.39,8.02,-3.08,-1.05,0.95,1.34,0.68,-0.82,-0.65,4436,2019-03-25 16:18:26:565
0.0,10.19,-5.7,-1.05,0.95,1.34,0.72,0.71,-0.86,4442,2019-03-25 16:18:26:571
0.0,10.19,-5.7,-1.05,0.95,1.34,0.72,0.71,-0.86,4447,2019-03-25 16:18:26:576
0.0,10.19,-5.7,-1.05,0.95,1.34,0.72,0.71,-0.86,4452,2019-03-25 16:18:26:581
1.01,10.19,-5.25,0.81,2.77,-0.24,0.59,1.08,-0.9,4456,2019-03-25 16:18:26:585
1.01,10.19,-5.25,0.81,2.77,-0.24,0.59,1.08,-0.9,4462,2019-03-25 16:18:26:591
1.01,10.19,-5.25,0.81,2.77,-0.24,0.59,1.08,-0.9,4466,2019-03-25 16:18:26:595
1.38,9.71,-5.19,1.06,2.04,-0.19,0.5,1.36,-0.99,4472,2019-03-25 16:18:26:601
1.38,9.71,-5.19,1.06,2.04,-0.19,0.5,1.36,-0.99,4477,2019-03-25 16:18:26:606
1.38,9.71,-5.19,1.06,2.04,-0.19,0.5,1.36,-0.99,4482,2019-03-25 16:18:26:611
1.38,9.71,-5.19,1.06,2.04,-0.19,0.5,1.36,-0.99,4487,2019-03-25 16:18:26:616
1.38,9.71,-5.19,1.06,2.04,-0.19,0.5,1.36,-0.99,4491,2019-03-25 16:18:26:620
1.01,8.73,-5.06,0.64,0.91,0.02,0.62,0.58,-0.96,4496,2019-03-25 16:18:26:625
1.01,8.73,-5.06,0.64,0.91,0.02,0.62,0.58,-0.96,4502,2019-03-25 16:18:26:631
0.69,8.18,-4.13,0.64,0.91,0.02,0.62,0.58,-0.96,4507,2019-03-25 16:18:26:636
0.69,8.18,-4.13,0.64,0.91,0.02,0.24,-1.05,-0.76,4511,2019-03-25 16:18:26:640
0.69,8.18,-4.13,0.64,0.91,0.02,0.24,-1.05,-0.76,4516,2019-03-25 16:18:26:645
0.69,8.18,-4.13,0.64,0.91,0.02,0.24,-1.05,-0.76,4521,2019-03-25 16:18:26:650
0.9,7.89,-5.71,0.79,-0.42,-0.99,0.09,-1.82,-0.69,4527,2019-03-25 16:18:26:656
0.9,7.89,-5.71,0.79,-0.42,-0.99,0.09,-1.82,-0.69,4532,2019-03-25 16:18:26:661
0.9,7.89,-5.71,0.79,-0.42,-0.99,0.09,-1.82,-0.69,4537,2019-03-25 16:18:26:666
0.9,7.89,-5.71,0.79,-0.42,-0.99,0.09,-1.82,-0.69,4542,2019-03-25 16:18:26:671
0.76,6.9,-8.03,1.04,-1.57,-3.18,-0.41,-4.41,-0.49,4546,2019-03-25 16:18:26:675
0.76,6.9,-8.03,1.04,-1.57,-3.18,-0.41,-4.41,-0.49,4551,2019-03-25 16:18:26:680
0.76,6.9,-8.03,1.04,-1.57,-3.18,-0.41,-4.41,-0.49,4557,2019-03-25 16:18:26:686
0.76,6.9,-8.03,1.04,-1.57,-3.18,-0.41,-4.41,-0.49,4562,2019-03-25 16:18:26:691
0.76,6.9,-8.03,1.04,-1.57,-3.18,-0.41,-4.41,-0.49,4566,2019-03-25 16:18:26:695
-1.91,8.12,-5.83,-0.94,-0.49,-0.98,-0.74,-7.2,0.2,4571,2019-03-25 16:18:26:700
-1.91,8.12,-5.83,-0.94,-0.49,-0.98,-0.74,-7.2,0.2,4577,2019-03-25 16:18:26:706
-1.91,8.12,-5.83,-0.94,-0.49,-0.98,-0.74,-7.2,0.2,4582,2019-03-25 16:18:26:711
-1.91,8.12,-5.83,-0.94,-0.49,-0.98,-0.74,-7.2,0.2,4587,2019-03-25 16:18:26:716
-1.91,8.12,-5.83,-0.94,-0.49,-0.98,-0.74,-7.2,0.2,4592,2019-03-25 16:18:26:721
-4.25,6.04,-4.6,-2.49,-2.48,0.24,0.13,-5.59,0.34,4598,2019-03-25 16:18:26:727
-4.25,6.04,-4.6,-2.49,-2.48,0.24,0.13,-5.59,0.34,4602,2019-03-25 16:18:26:731
-4.25,6.04,-4.6,-2.49,-2.48,0.24,0.13,-5.59,0.34,4607,2019-03-25 16:18:26:736
-4.25,6.04,-4.6,-2.49,-2.48,0.24,0.13,-5.59,0.34,4612,2019-03-25 16:18:26:741
-4.25,6.04,-4.6,-2.49,-2.48,0.24,0.13,-5.59,0.34,4616,2019-03-25 16:18:26:745
-3.34,7.21,-8.56,-1.4,-1.06,-2.96,1.19,0.87,0.15,4621,2019-03-25 16:18:26:750
-3.34,7.21,-8.56,-1.4,-1.06,-2.96,1.19,0.87,0.15,4626,2019-03-25 16:18:26:755
-3.34,7.21,-8.56,-1.4,-1.06,-2.96,1.19,0.87,0.15,4632,2019-03-25 16:18:26:761
-1.99,8.46,-5.74,-0.36,0.32,0.12,0.22,2.21,-0.06,4637,2019-03-25 16:18:26:766
-1.99,8.46,-5.74,-0.36,0.32,0.12,0.22,2.21,-0.06,4641,2019-03-25 16:18:26:770
-1.99,8.46,-5.74,-0.36,0.32,0.12,0.22,2.21,-0.06,4647,2019-03-25 16:18:26:776
-1.99,8.46,-5.74,-0.36,0.32,0.12,0.22,2.21,-0.06,4651,2019-03-25 16:18:26:780
-1.02,6.92,-7.4,0.22,-0.39,-0.4,0.24,2.7,-0.17,4657,2019-03-25 16:18:26:786
-1.02,6.92,-7.4,0.22,-0.39,-0.4,0.24,2.7,-0.17,4662,2019-03-25 16:18:26:791
-1.02,6.92,-7.4,0.22,-0.39,-0.4,0.24,2.7,-0.17,4667,2019-03-25 16:18:26:796
-1.4,7.13,-8.06,-0.17,-0.39,-1.69,0.35,2.48,-0.21,4671,2019-03-25 16:18:26:800
-1.4,7.13,-8.06,-0.17,-0.39,-1.69,0.35,2.48,-0.21,4676,2019-03-25 16:18:26:805
-1.4,7.13,-8.06,-0.17,-0.39,-1.69,0.35,2.48,-0.21,4681,2019-03-25 16:18:26:810
-0.65,6.98,-8.14,0.51,-0.28,-1.37,0.45,1.47,-0.5,4686,2019-03-25 16:18:26:815
-0.65,6.98,-8.14,0.51,-0.28,-1.37,0.45,1.47,-0.5,4691,2019-03-25 16:18:26:820
-0.65,6.98,-8.14,0.51,-0.28,-1.37,0.45,1.47,-0.5,4697,2019-03-25 16:18:26:826
-0.65,6.98,-8.14,0.51,-0.28,-1.37,0.45,1.47,-0.5,4701,2019-03-25 16:18:26:830
-0.27,6.76,-8.84,0.51,-0.28,-1.37,0.64,0.48,-0.91,4706,2019-03-25 16:18:26:835
-0.27,6.76,-8.84,0.51,-0.28,-1.37,0.64,0.48,-0.91,4712,2019-03-25 16:18:26:841
-0.27,6.76,-8.84,0.91,-0.3,-1.55,0.64,0.48,-0.91,4717,2019-03-25 16:18:26:846
-0.54,6.57,-8.08,0.91,-0.3,-1.55,0.76,0.1,-0.99,4721,2019-03-25 16:18:26:850
-0.54,6.57,-8.08,0.3,-0.48,0.25,0.76,0.1,-0.99,4726,2019-03-25 16:18:26:855
-0.54,6.57,-8.08,0.3,-0.48,0.25,0.76,0.1,-0.99,4731,2019-03-25 16:18:26:860
-0.54,6.57,-8.08,0.3,-0.48,0.25,0.76,0.1,-0.99,4736,2019-03-25 16:18:26:865
-0.54,6.57,-8.08,0.3,-0.48,0.25,0.76,0.1,-0.99,4742,2019-03-25 16:18:26:871
-1.3,6.28,-7.64,0.35,-0.35,0.13,1.29,-0.33,-0.7,4748,2019-03-25 16:18:26:877
-1.3,6.28,-7.64,0.35,-0.35,0.13,1.29,-0.33,-0.7,4751,2019-03-25 16:18:26:880
-1.3,6.28,-7.64,0.35,-0.35,0.13,1.29,-0.33,-0.7,4757,2019-03-25 16:18:26:886
-1.3,6.28,-7.64,0.35,-0.35,0.13,1.29,-0.33,-0.7,4761,2019-03-25 16:18:26:890
-1.3,6.28,-7.64,0.35,-0.35,0.13,1.29,-0.33,-0.7,4766,2019-03-25 16:18:26:895
-1.66,6.37,-7.61,0.12,-0.02,0.4,1.5,-0.42,-0.47,4771,2019-03-25 16:18:26:900
-1.66,6.37,-7.61,0.12,-0.02,0.4,1.5,-0.42,-0.47,4777,2019-03-25 16:18:26:906
-1.66,6.37,-7.61,0.12,-0.02,0.4,1.5,-0.42,-0.47,4782,2019-03-25 16:18:26:911
-1.66,6.37,-7.61,0.12,-0.02,0.4,1.5,-0.42,-0.47,4787,2019-03-25 16:18:26:916
-1.66,6.37,-7.61,0.12,-0.02,0.4,1.5,-0.42,-0.47,4791,2019-03-25 16:18:26:920
-1.18,6.11,-8.24,0.51,-0.1,0.25,1.74,-0.26,-0.54,4797,2019-03-25 16:18:26:926
-1.18,6.11,-8.24,0.51,-0.1,0.25,1.74,-0.26,-0.54,4802,2019-03-25 16:18:26:931
-1.62,5.78,-10.87,0.51,-0.1,0.25,2.05,-0.45,-0.84,4807,2019-03-25 16:18:26:936
-1.62,5.78,-10.87,0.51,-0.1,0.25,2.05,-0.45,-0.84,4812,2019-03-25 16:18:26:941
-1.62,5.78,-10.87,0.51,-0.1,0.25,2.05,-0.45,-0.84,4816,2019-03-25 16:18:26:945
-1.62,5.78,-10.87,0.51,-0.1,0.25,2.05,-0.45,-0.84,4821,2019-03-25 16:18:26:950
-2.11,5.2,-10.39,-0.36,-0.36,-1.24,2.13,-0.83,-1.05,4827,2019-03-25 16:18:26:956
-2.11,5.2,-10.39,-0.36,-0.36,-1.24,2.13,-0.83,-1.05,4832,2019-03-25 16:18:26:961
-2.11,5.2,-10.39,-0.36,-0.36,-1.24,2.13,-0.83,-1.05,4837,2019-03-25 16:18:26:966
-2.11,5.2,-10.39,-0.36,-0.36,-1.24,2.13,-0.83,-1.05,4843,2019-03-25 16:18:26:972
-2.11,5.2,-10.39,-0.36,-0.36,-1.24,2.13,-0.83,-1.05,4847,2019-03-25 16:18:26:976
-2.11,5.2,-10.39,-0.36,-0.36,-1.24,2.13,-0.83,-1.05,4852,2019-03-25 16:18:26:981
-3.28,5.62,-8.6,-1.21,0.41,0.87,1.82,-0.59,-0.95,4856,2019-03-25 16:18:26:985
-3.28,5.62,-8.6,-1.21,0.41,0.87,1.82,-0.59,-0.95,4861,2019-03-25 16:18:26:990
-3.28,5.62,-8.6,-1.21,0.41,0.87,1.82,-0.59,-0.95,4866,2019-03-25 16:18:26:995
-3.28,5.62,-8.6,-1.21,0.41,0.87,1.82,-0.59,-0.95,4871,2019-03-25 16:18:27:000
-4.84,5.0,-8.52,-1.21,0.41,0.87,1.62,0.59,-0.74,4876,2019-03-25 16:18:27:005
-4.84,5.0,-8.52,-2.47,0.03,1.05,1.62,0.59,-0.74,4881,2019-03-25 16:18:27:010
-4.84,5.0,-8.52,-2.47,0.03,1.05,1.62,0.59,-0.74,4887,2019-03-25 16:18:27:016
-2.89,4.16,-8.88,-2.47,0.03,1.05,1.61,1.17,-0.14,4891,2019-03-25 16:18:27:020
-2.89,4.16,-8.88,-2.47,0.03,1.05,1.61,1.17,-0.14,4897,2019-03-25 16:18:27:026
-2.89,4.16,-8.88,-2.47,0.03,1.05,1.61,1.17,-0.14,4901,2019-03-25 16:18:27:030
-2.89,4.16,-8.88,-2.47,0.03,1.05,1.61,1.17,-0.14,4907,2019-03-25 16:18:27:036
-2.89,4.16,-8.88,-2.47,0.03,1.05,1.61,1.17,-0.14,4911,2019-03-25 16:18:27:040
-2.89,4.16,-8.88,-2.47,0.03,1.05,1.61,1.17,-0.14,4916,2019-03-25 16:18:27:045
-2.82,4.25,-11.24,-0.51,-0.09,-1.36,1.86,1.1,0.14,4923,2019-03-25 16:18:27:052
-2.82,4.25,-11.24,-0.51,-0.09,-1.36,1.86,1.1,0.14,4926,2019-03-25 16:18:27:055
-2.82,4.25,-11.24,-0.51,-0.09,-1.36,1.86,1.1,0.14,4931,2019-03-25 16:18:27:060
-2.82,4.25,-11.24,-0.51,-0.09,-1.36,1.86,1.1,0.14,4937,2019-03-25 16:18:27:066
-2.82,4.25,-11.24,-0.51,-0.09,-1.36,1.86,1.1,0.14,4941,2019-03-25 16:18:27:070
-2.82,4.25,-11.24,-0.51,-0.09,-1.36,1.86,1.1,0.14,4946,2019-03-25 16:18:27:075
-2.82,4.25,-11.24,-0.51,-0.09,-1.36,1.86,1.1,0.14,4952,2019-03-25 16:18:27:081
-0.36,5.06,-10.42,1.5,1.06,0.05,1.7,1.34,0.0,4956,2019-03-25 16:18:27:085
-0.36,5.06,-10.42,1.5,1.06,0.05,1.7,1.34,0.0,4961,2019-03-25 16:18:27:090
-0.36,5.06,-10.42,1.5,1.06,0.05,1.7,1.34,0.0,4966,2019-03-25 16:18:27:095
-1.05,4.64,-10.89,0.61,0.87,-0.13,2.11,0.73,-0.28,4972,2019-03-25 16:18:27:101
-1.05,4.64,-10.89,0.61,0.87,-0.13,2.11,0.73,-0.28,4976,2019-03-25 16:18:27:105
-1.05,4.64,-10.89,0.61,0.87,-0.13,2.11,0.73,-0.28,4981,2019-03-25 16:18:27:110
-1.05,4.64,-10.89,0.61,0.87,-0.13,2.11,0.73,-0.28,4987,2019-03-25 16:18:27:116
-0.67,5.02,-10.57,0.94,1.47,0.4,2.33,0.05,-0.32,4991,2019-03-25 16:18:27:120
-0.67,5.02,-10.57,0.94,1.47,0.4,2.33,0.05,-0.32,4996,2019-03-25 16:18:27:125
-0.67,5.02,-10.57,0.94,1.47,0.4,2.33,0.05,-0.32,5001,2019-03-25 16:18:27:130
-1.81,3.85,-10.64,0.94,1.47,0.4,2.07,-0.11,-0.47,5006,2019-03-25 16:18:27:135
-1.81,3.85,-10.64,-0.06,0.59,0.46,2.07,-0.11,-0.47,5012,2019-03-25 16:18:27:141
-1.81,3.85,-10.64,-0.06,0.59,0.46,2.07,-0.11,-0.47,5017,2019-03-25 16:18:27:146
-1.81,3.85,-10.64,-0.06,0.59,0.46,2.07,-0.11,-0.47,5022,2019-03-25 16:18:27:151
-1.81,3.85,-10.64,-0.06,0.59,0.46,2.07,-0.11,-0.47,5027,2019-03-25 16:18:27:156
-1.81,3.85,-10.64,-0.06,0.59,0.46,2.07,-0.11,-0.47,5032,2019-03-25 16:18:27:161
-2.41,2.88,-9.9,-0.48,-0.14,1.05,1.42,-0.31,-0.56,5037,2019-03-25 16:18:27:166
-2.41,2.88,-9.9,-0.48,-0.14,1.05,1.42,-0.31,-0.56,5041,2019-03-25 16:18:27:170
-2.41,2.88,-9.9,-0.48,-0.14,1.05,1.42,-0.31,-0.56,5046,2019-03-25 16:18:27:175
-2.41,2.88,-9.9,-0.48,-0.14,1.05,1.42,-0.31,-0.56,5051,2019-03-25 16:18:27:180
-2.37,3.74,-8.9,-0.31,0.87,1.96,1.02,-0.55,-0.54,5057,2019-03-25 16:18:27:186
-2.37,3.74,-8.9,-0.31,0.87,1.96,1.02,-0.55,-0.54,5062,2019-03-25 16:18:27:191
-2.37,3.74,-8.9,-0.31,0.87,1.96,1.02,-0.55,-0.54,5067,2019-03-25 16:18:27:196
0.2,4.46,-9.31,-0.31,0.87,1.96,1.14,-0.49,-0.46,5072,2019-03-25 16:18:27:201
0.2,4.46,-9.31,-0.31,0.87,1.96,1.14,-0.49,-0.46,5077,2019-03-25 16:18:27:206
0.2,4.46,-9.31,-0.31,0.87,1.96,1.14,-0.49,-0.46,5082,2019-03-25 16:18:27:211
0.2,4.46,-9.31,-0.31,0.87,1.96,1.14,-0.49,-0.46,5087,2019-03-25 16:18:27:216
0.0,3.19,-10.33,1.5,0.19,0.45,0.68,0.33,0.15,5091,2019-03-25 16:18:27:220
0.0,3.19,-10.33,1.5,0.19,0.45,0.68,0.33,0.15,5097,2019-03-25 16:18:27:226
0.0,3.19,-10.33,1.5,0.19,0.45,0.68,0.33,0.15,5102,2019-03-25 16:18:27:231
-1.14,1.71,-9.88,0.13,-1.27,0.75,0.12,0.1,0.13,5106,2019-03-25 16:18:27:235
-1.14,1.71,-9.88,0.13,-1.27,0.75,0.12,0.1,0.13,5111,2019-03-25 16:18:27:240
-1.14,1.71,-9.88,0.13,-1.27,0.75,0.12,0.1,0.13,5116,2019-03-25 16:18:27:245
-1.14,1.71,-9.88,0.13,-1.27,0.75,0.12,0.1,0.13,5121,2019-03-25 16:18:27:250
-1.87,1.68,-9.94,-0.69,-1.31,0.44,-0.48,0.43,0.34,5127,2019-03-25 16:18:27:256
-1.87,1.68,-9.94,-0.69,-1.31,0.44,-0.48,0.43,0.34,5132,2019-03-25 16:18:27:261
-1.87,1.68,-9.94,-0.69,-1.31,0.44,-0.48,0.43,0.34,5137,2019-03-25 16:18:27:266
-1.87,1.68,-9.94,-0.69,-1.31,0.44,-0.48,0.43,0.34,5141,2019-03-25 16:18:27:270
-1.82,2.98,-9.33,-0.63,-0.21,0.79,-1.06,0.48,0.7,5147,2019-03-25 16:18:27:276
-1.82,2.98,-9.33,-0.63,-0.21,0.79,-1.06,0.48,0.7,5152,2019-03-25 16:18:27:281
-1.82,2.98,-9.33,-0.63,-0.21,0.79,-1.06,0.48,0.7,5157,2019-03-25 16:18:27:286
-1.82,2.98,-9.33,-0.63,-0.21,0.79,-1.06,0.48,0.7,5162,2019-03-25 16:18:27:291
-1.82,2.98,-9.33,-0.63,-0.21,0.79,-1.06,0.48,0.7,5167,2019-03-25 16:18:27:296
-2.17,1.95,-8.7,-1.06,-1.36,1.11,-1.31,0.99,0.62,5172,2019-03-25 16:18:27:301
-2.17,1.95,-8.7,-1.06,-1.36,1.11,-1.31,0.99,0.62,5177,2019-03-25 16:18:27:306
-2.17,1.95,-8.7,-1.06,-1.36,1.11,-1.31,0.99,0.62,5181,2019-03-25 16:18:27:310
-2.17,1.95,-8.7,-1.06,-1.36,1.11,-1.31,0.99,0.62,5186,2019-03-25 16:18:27:315
-1.59,2.95,-8.93,-0.52,-0.42,0.61,-1.01,0.5,0.55,5191,2019-03-25 16:18:27:320
-1.59,2.95,-8.93,-0.52,-0.42,0.61,-1.01,0.5,0.55,5196,2019-03-25 16:18:27:325
-1.59,2.95,-8.93,-0.52,-0.42,0.61,-1.01,0.5,0.55,5201,2019-03-25 16:18:27:330
-1.59,2.95,-8.93,-0.52,-0.42,0.61,-1.01,0.5,0.55,5206,2019-03-25 16:18:27:335
-1.59,2.95,-8.93,-0.52,-0.42,0.61,-1.01,0.5,0.55,5212,2019-03-25 16:18:27:341
-1.59,2.95,-8.93,-0.52,-0.42,0.61,-1.01,0.5,0.55,5217,2019-03-25 16:18:27:346
-1.04,2.58,-8.26,0.04,-0.82,0.96,-0.83,-0.42,0.07,5222,2019-03-25 16:18:27:351
-1.04,2.58,-8.26,0.04,-0.82,0.96,-0.83,-0.42,0.07,5227,2019-03-25 16:18:27:356
-1.04,2.58,-8.26,0.04,-0.82,0.96,-0.83,-0.42,0.07,5232,2019-03-25 16:18:27:361
-1.04,2.58,-8.26,0.04,-0.82,0.96,-0.83,-0.42,0.07,5237,2019-03-25 16:18:27:366
-1.04,2.58,-8.26,0.04,-0.82,0.96,-0.83,-0.42,0.07,5242,2019-03-25 16:18:27:371
-0.27,3.89,-8.1,0.97,0.32,0.74,-0.37,-1.08,-1.03,5247,2019-03-25 16:18:27:376
-0.27,3.89,-8.1,0.97,0.32,0.74,-0.37,-1.08,-1.03,5252,2019-03-25 16:18:27:381
-0.27,3.89,-8.1,0.97,0.32,0.74,-0.37,-1.08,-1.03,5257,2019-03-25 16:18:27:386
-0.27,3.89,-8.1,0.97,0.32,0.74,-0.37,-1.08,-1.03,5262,2019-03-25 16:18:27:391
-0.27,3.89,-8.1,0.97,0.32,0.74,-0.37,-1.08,-1.03,5267,2019-03-25 16:18:27:396
-0.27,3.89,-8.1,0.97,0.32,0.74,-0.37,-1.08,-1.03,5272,2019-03-25 16:18:27:401
-1.21,2.52,-7.84,0.35,-0.81,0.89,-0.55,-1.1,-1.21,5277,2019-03-25 16:18:27:406
-1.21,2.52,-7.84,0.35,-0.81,0.89,-0.55,-1.1,-1.21,5282,2019-03-25 16:18:27:411
-1.21,2.52,-7.84,0.35,-0.81,0.89,-0.55,-1.1,-1.21,5286,2019-03-25 16:18:27:415
-1.02,1.41,-8.8,0.95,-1.68,-0.26,-0.78,-1.3,-0.94,5291,2019-03-25 16:18:27:420
-1.02,1.41,-8.8,0.95,-1.68,-0.26,-0.78,-1.3,-0.94,5296,2019-03-25 16:18:27:425
-1.02,1.41,-8.8,0.95,-1.68,-0.26,-0.78,-1.3,-0.94,5301,2019-03-25 16:18:27:430
-0.88,2.06,-8.9,1.3,-1.02,-0.55,-0.71,-1.41,-0.24,5307,2019-03-25 16:18:27:436
-0.88,2.06,-8.9,1.3,-1.02,-0.55,-0.71,-1.41,-0.24,5312,2019-03-25 16:18:27:441
-0.88,2.06,-8.9,1.3,-1.02,-0.55,-0.71,-1.41,-0.24,5317,2019-03-25 16:18:27:446
-0.88,2.06,-8.9,1.3,-1.02,-0.55,-0.71,-1.41,-0.24,5322,2019-03-25 16:18:27:451
-0.88,2.06,-8.9,1.3,-1.02,-0.55,-0.71,-1.41,-0.24,5327,2019-03-25 16:18:27:456
-0.88,2.06,-8.9,1.3,-1.02,-0.55,-0.71,-1.41,-0.24,5332,2019-03-25 16:18:27:461
-0.95,3.33,-8.37,1.23,0.12,-0.1,-0.91,-0.88,0.0,5337,2019-03-25 16:18:27:466
-0.95,3.33,-8.37,1.23,0.12,-0.1,-0.91,-0.88,0.0,5342,2019-03-25 16:18:27:471
-0.95,3.33,-8.37,1.23,0.12,-0.1,-0.91,-0.88,0.0,5347,2019-03-25 16:18:27:476
-0.95,3.33,-8.37,1.23,0.12,-0.1,-0.91,-0.88,0.0,5352,2019-03-25 16:18:27:481
-0.95,3.33,-8.37,1.23,0.12,-0.1,-0.91,-0.88,0.0,5357,2019-03-25 16:18:27:486
-0.95,3.33,-8.37,1.23,0.12,-0.1,-0.91,-0.88,0.0,5361,2019-03-25 16:18:27:490
-2.0,3.71,-10.15,1.23,0.12,-0.1,-0.91,-0.88,0.0,5366,2019-03-25 16:18:27:495
-2.0,3.71,-10.15,-0.01,0.11,-1.84,-0.53,0.44,-0.55,5371,2019-03-25 16:18:27:500
-2.0,3.71,-10.15,-0.01,0.11,-1.84,-0.53,0.44,-0.55,5376,2019-03-25 16:18:27:505
-2.0,3.71,-10.15,-0.01,0.11,-1.84,-0.53,0.44,-0.55,5382,2019-03-25 16:18:27:511
-2.0,3.71,-10.15,-0.01,0.11,-1.84,-0.53,0.44,-0.55,5386,2019-03-25 16:18:27:515
-1.95,4.73,-9.27,-0.16,1.07,-0.82,-0.21,0.74,-0.53,5391,2019-03-25 16:18:27:520
-1.95,4.73,-9.27,-0.16,1.07,-0.82,-0.21,0.74,-0.53,5396,2019-03-25 16:18:27:525
-1.95,4.73,-9.27,-0.16,1.07,-0.82,-0.21,0.74,-0.53,5401,2019-03-25 16:18:27:530
-2.29,4.81,-9.63,-0.65,1.06,-0.91,0.11,0.87,-0.4,5407,2019-03-25 16:18:27:536
-2.29,4.81,-9.63,-0.65,1.06,-0.91,0.11,0.87,-0.4,5412,2019-03-25 16:18:27:541
-2.29,4.81,-9.63,-0.65,1.06,-0.91,0.11,0.87,-0.4,5416,2019-03-25 16:18:27:545
-2.29,4.81,-9.63,-0.65,1.06,-0.91,0.11,0.87,-0.4,5421,2019-03-25 16:18:27:550
-1.71,4.84,-8.44,-0.13,1.01,0.4,-0.02,0.28,-0.39,5426,2019-03-25 16:18:27:555
-1.71,4.84,-8.44,-0.13,1.01,0.4,-0.02,0.28,-0.39,5431,2019-03-25 16:18:27:560
-1.71,4.84,-8.44,-0.13,1.01,0.4,-0.02,0.28,-0.39,5436,2019-03-25 16:18:27:565
-1.71,4.84,-8.44,-0.13,1.01,0.4,-0.02,0.28,-0.39,5441,2019-03-25 16:18:27:570
-1.71,4.84,-8.44,-0.13,1.01,0.4,-0.02,0.28,-0.39,5446,2019-03-25 16:18:27:575
-1.71,4.84,-8.44,-0.13,1.01,0.4,-0.02,0.28,-0.39,5451,2019-03-25 16:18:27:580
-2.11,4.69,-8.76,-0.48,0.81,0.14,-0.28,0.26,-0.29,5457,2019-03-25 16:18:27:586
-2.11,4.69,-8.76,-0.48,0.81,0.14,-0.28,0.26,-0.29,5461,2019-03-25 16:18:27:590
-2.11,4.69,-8.76,-0.48,0.81,0.14,-0.28,0.26,-0.29,5466,2019-03-25 16:18:27:595
-2.91,4.66,-8.5,-1.2,0.65,0.51,-0.24,0.34,-0.36,5472,2019-03-25 16:18:27:601
-2.91,4.66,-8.5,-1.2,0.65,0.51,-0.24,0.34,-0.36,5477,2019-03-25 16:18:27:606
-2.91,4.66,-8.5,-1.2,0.65,0.51,-0.24,0.34,-0.36,5482,2019-03-25 16:18:27:611
-3.58,4.35,-8.74,-1.71,0.09,0.34,-0.17,0.54,-0.45,5486,2019-03-25 16:18:27:615
-3.58,4.35,-8.74,-1.71,0.09,0.34,-0.17,0.54,-0.45,5491,2019-03-25 16:18:27:620
-3.58,4.35,-8.74,-1.71,0.09,0.34,-0.17,0.54,-0.45,5497,2019-03-25 16:18:27:626
-3.58,4.35,-8.74,-1.71,0.09,0.34,-0.17,0.54,-0.45,5501,2019-03-25 16:18:27:630
-3.04,3.78,-7.61,-1.04,-0.62,1.44,-0.06,0.82,-0.23,5507,2019-03-25 16:18:27:636
-3.04,3.78,-7.61,-1.04,-0.62,1.44,-0.06,0.82,-0.23,5512,2019-03-25 16:18:27:641
-3.04,3.78,-7.61,-1.04,-0.62,1.44,-0.06,0.82,-0.23,5517,2019-03-25 16:18:27:646
-3.04,3.78,-7.61,-1.04,-0.62,1.44,-0.06,0.82,-0.23,5521,2019-03-25 16:18:27:650
-3.04,3.78,-7.61,-1.04,-0.62,1.44,-0.06,0.82,-0.23,5527,2019-03-25 16:18:27:656
-3.04,3.78,-7.61,-1.04,-0.62,1.44,-0.06,0.82,-0.23,5532,2019-03-25 16:18:27:661
-2.94,3.67,-8.04,-0.85,-0.76,0.89,0.02,0.93,0.13,5536,2019-03-25 16:18:27:665
-2.94,3.67,-8.04,-0.85,-0.76,0.89,0.02,0.93,0.13,5542,2019-03-25 16:18:27:671
-2.94,3.67,-8.04,-0.85,-0.76,0.89,0.27,0.99,0.64,5546,2019-03-25 16:18:27:675
-2.94,3.67,-8.04,-0.85,-0.76,0.89,0.27,0.99,0.64,5552,2019-03-25 16:18:27:681
-2.94,3.67,-8.04,-0.85,-0.76,0.89,0.27,0.99,0.64,5557,2019-03-25 16:18:27:686
-2.94,3.67,-8.04,-0.85,-0.76,0.89,0.27,0.99,0.64,5562,2019-03-25 16:18:27:691
-2.94,3.67,-8.04,-0.85,-0.76,0.89,0.27,0.99,0.64,5566,2019-03-25 16:18:27:695
-0.68,6.33,-9.02,1.26,1.41,-0.05,0.44,2.21,0.89,5571,2019-03-25 16:18:27:700
-0.68,6.33,-9.02,1.26,1.41,-0.05,0.44,2.21,0.89,5576,2019-03-25 16:18:27:705
-0.68,6.33,-9.02,1.26,1.41,-0.05,0.44,2.21,0.89,5582,2019-03-25 16:18:27:711
-0.68,6.33,-9.02,1.26,1.41,-0.05,0.44,2.21,0.89,5586,2019-03-25 16:18:27:715
0.18,5.08,-8.48,1.59,0.14,0.42,0.13,1.69,1.3,5592,2019-03-25 16:18:27:721
0.18,5.08,-8.48,1.59,0.14,0.42,0.13,1.69,1.3,5597,2019-03-25 16:18:27:726
0.18,5.08,-8.48,1.59,0.14,0.42,0.13,1.69,1.3,5601,2019-03-25 16:18:27:730
0.18,5.08,-8.48,1.59,0.14,0.42,0.13,1.69,1.3,5607,2019-03-25 16:18:27:736
0.18,5.08,-8.48,1.59,0.14,0.42,0.13,1.69,1.3,5612,2019-03-25 16:18:27:741
0.18,5.08,-8.48,1.59,0.14,0.42,0.13,1.69,1.3,5616,2019-03-25 16:18:27:745
-0.89,6.43,-8.72,0.11,1.37,0.09,0.32,1.66,0.95,5621,2019-03-25 16:18:27:750
-0.89,6.43,-8.72,0.11,1.37,0.09,0.32,1.66,0.95,5626,2019-03-25 16:18:27:755
-0.89,6.43,-8.72,0.11,1.37,0.09,0.32,1.66,0.95,5631,2019-03-25 16:18:27:760
-0.89,6.43,-8.72,0.11,1.37,0.09,0.32,1.66,0.95,5637,2019-03-25 16:18:27:766
-0.89,6.43,-8.72,0.11,1.37,0.09,0.32,1.66,0.95,5642,2019-03-25 16:18:27:771
-1.45,2.61,2.37,0.11,1.37,0.09,0.32,1.66,0.95,5646,2019-03-25 16:18:27:775
-1.45,2.61,2.37,-0.46,-2.35,10.86,-0.54,0.56,0.39,5652,2019-03-25 16:18:27:781
-1.45,2.61,2.37,-0.46,-2.35,10.86,-0.54,0.56,0.39,5657,2019-03-25 16:18:27:786
-1.45,2.61,2.37,-0.46,-2.35,10.86,-0.54,0.56,0.39,5662,2019-03-25 16:18:27:791
-0.67,2.76,-8.2,-0.46,-2.35,10.86,-0.54,0.56,0.39,5666,2019-03-25 16:18:27:795
-0.67,2.76,-8.2,-0.11,-2.11,0.17,-1.29,2.69,0.38,5672,2019-03-25 16:18:27:801
-0.67,2.76,-8.2,-0.11,-2.11,0.17,-1.29,2.69,0.38,5677,2019-03-25 16:18:27:806
-0.67,2.76,-8.2,-0.11,-2.11,0.17,-1.29,2.69,0.38,5682,2019-03-25 16:18:27:811
2.75,6.3,-8.68,2.62,1.25,-0.36,-0.61,1.89,0.89,5686,2019-03-25 16:18:27:815
2.75,6.3,-8.68,2.62,1.25,-0.36,-0.61,1.89,0.89,5692,2019-03-25 16:18:27:821
2.75,6.3,-8.68,2.62,1.25,-0.36,-0.61,1.89,0.89,5697,2019-03-25 16:18:27:826
2.75,6.3,-8.68,2.62,1.25,-0.36,-0.61,1.89,0.89,5701,2019-03-25 16:18:27:830
3.93,6.82,-6.96,3.01,1.41,1.19,-0.79,1.95,0.53,5706,2019-03-25 16:18:27:835
3.93,6.82,-6.96,3.01,1.41,1.19,-0.79,1.95,0.53,5711,2019-03-25 16:18:27:840
3.93,6.82,-6.96,3.01,1.41,1.19,-0.79,1.95,0.53,5716,2019-03-25 16:18:27:845
3.93,6.82,-6.96,3.01,1.41,1.19,-0.79,1.95,0.53,5721,2019-03-25 16:18:27:850
0.89,4.71,-8.32,-0.55,-0.98,0.14,-0.65,1.96,-0.08,5726,2019-03-25 16:18:27:855
0.89,4.71,-8.32,-0.55,-0.98,0.14,-0.65,1.96,-0.08,5731,2019-03-25 16:18:27:860
0.89,4.71,-8.32,-0.55,-0.98,0.14,-0.65,1.96,-0.08,5736,2019-03-25 16:18:27:865
0.89,4.71,-8.32,-0.55,-0.98,0.14,-0.65,1.96,-0.08,5741,2019-03-25 16:18:27:870
1.45,4.39,-7.71,-0.23,-1.0,0.85,0.46,-0.03,-0.31,5746,2019-03-25 16:18:27:875
1.45,4.39,-7.71,-0.23,-1.0,0.85,0.46,-0.03,-0.31,5752,2019-03-25 16:18:27:881
1.45,4.39,-7.71,-0.23,-1.0,0.85,0.46,-0.03,-0.31,5757,2019-03-25 16:18:27:886
1.45,4.39,-7.71,-0.23,-1.0,0.85,0.46,-0.03,-0.31,5762,2019-03-25 16:18:27:891
2.79,4.15,-9.07,-0.23,-1.0,0.85,0.46,-0.03,-0.31,5766,2019-03-25 16:18:27:895
2.79,4.15,-9.07,0.96,-0.8,-0.71,0.8,0.52,-0.28,5772,2019-03-25 16:18:27:901
2.79,4.15,-9.07,0.96,-0.8,-0.71,0.8,0.52,-0.28,5776,2019-03-25 16:18:27:905
2.79,4.15,-9.07,0.96,-0.8,-0.71,0.8,0.52,-0.28,5782,2019-03-25 16:18:27:911
2.79,4.15,-9.07,0.96,-0.8,-0.71,0.8,0.52,-0.28,5787,2019-03-25 16:18:27:916
2.79,4.15,-9.07,0.96,-0.8,-0.71,0.8,0.52,-0.28,5792,2019-03-25 16:18:27:921
2.85,2.66,-9.39,0.91,-1.96,-0.83,0.93,1.23,-0.65,5797,2019-03-25 16:18:27:926
2.85,2.66,-9.39,0.91,-1.96,-0.83,0.93,1.23,-0.65,5801,2019-03-25 16:18:27:930
2.85,2.66,-9.39,0.91,-1.96,-0.83,0.93,1.23,-0.65,5807,2019-03-25 16:18:27:936
-0.05,3.78,-11.53,-2.01,-0.39,-2.76,0.71,1.15,-0.88,5812,2019-03-25 16:18:27:941
-0.05,3.78,-11.53,-2.01,-0.39,-2.76,0.71,1.15,-0.88,5816,2019-03-25 16:18:27:945
-0.05,3.78,-11.53,-2.01,-0.39,-2.76,0.71,1.15,-0.88,5822,2019-03-25 16:18:27:951
-0.05,3.78,-11.53,-2.01,-0.39,-2.76,0.71,1.15,-0.88,5827,2019-03-25 16:18:27:956
-0.05,3.78,-11.53,-2.01,-0.39,-2.76,0.71,1.15,-0.88,5832,2019-03-25 16:18:27:961
-0.05,3.78,-11.53,-2.01,-0.39,-2.76,0.71,1.15,-0.88,5836,2019-03-25 16:18:27:965
0.58,4.14,-9.4,-1.34,0.15,-0.5,-0.07,0.7,-0.76,5841,2019-03-25 16:18:27:970
0.58,4.14,-9.4,-1.34,0.15,-0.5,-0.07,0.7,-0.76,5846,2019-03-25 16:18:27:975
0.58,4.14,-9.4,-1.34,0.15,-0.5,-0.07,0.7,-0.76,5851,2019-03-25 16:18:27:980
0.58,4.14,-9.4,-1.34,0.15,-0.5,-0.07,0.7,-0.76,5857,2019-03-25 16:18:27:986
0.58,4.14,-9.4,-1.34,0.15,-0.5,-0.07,0.7,-0.76,5861,2019-03-25 16:18:27:990
0.58,4.14,-9.4,-1.34,0.15,-0.5,-0.07,0.7,-0.76,5866,2019-03-25 16:18:27:995
2.02,4.05,-8.36,-0.21,-0.32,0.8,0.01,0.08,-0.38,5872,2019-03-25 16:18:28:001
2.02,4.05,-8.36,-0.21,-0.32,0.8,0.01,0.08,-0.38,5877,2019-03-25 16:18:28:006
2.02,4.05,-8.36,-0.21,-0.32,0.8,0.01,0.08,-0.38,5882,2019-03-25 16:18:28:011
1.07,5.19,-8.67,-0.74,0.95,0.48,0.0,-0.2,-0.45,5887,2019-03-25 16:18:28:016
1.07,5.19,-8.67,-0.74,0.95,0.48,0.0,-0.2,-0.45,5892,2019-03-25 16:18:28:021
1.07,5.19,-8.67,-0.74,0.95,0.48,0.0,-0.2,-0.45,5897,2019-03-25 16:18:28:026
1.07,5.19,-8.67,-0.74,0.95,0.48,0.0,-0.2,-0.45,5901,2019-03-25 16:18:28:030
1.01,5.36,-7.99,-0.38,1.19,0.86,-0.01,-0.1,-0.48,5906,2019-03-25 16:18:28:035
1.01,5.36,-7.99,-0.38,1.19,0.86,-0.01,-0.1,-0.48,5911,2019-03-25 16:18:28:040
1.01,5.36,-7.99,-0.38,1.19,0.86,-0.01,-0.1,-0.48,5916,2019-03-25 16:18:28:045
1.01,5.36,-7.99,-0.38,1.19,0.86,-0.01,-0.1,-0.48,5922,2019-03-25 16:18:28:051
0.8,5.84,-8.92,-0.41,1.48,-0.03,-0.01,-0.86,-0.71,5927,2019-03-25 16:18:28:056
0.8,5.84,-8.92,-0.41,1.48,-0.03,-0.01,-0.86,-0.71,5931,2019-03-25 16:18:28:060
0.8,5.84,-8.92,-0.41,1.48,-0.03,-0.01,-0.86,-0.71,5936,2019-03-25 16:18:28:065
0.8,5.84,-8.92,-0.41,1.48,-0.03,-0.01,-0.86,-0.71,5941,2019-03-25 16:18:28:070
1.21,4.61,-4.57,0.52,0.11,4.12,-0.28,-2.96,-1.01,5946,2019-03-25 16:18:28:075
1.21,4.61,-4.57,0.52,0.11,4.12,-0.28,-2.96,-1.01,5951,2019-03-25 16:18:28:080
1.21,4.61,-4.57,0.52,0.11,4.12,-0.28,-2.96,-1.01,5957,2019-03-25 16:18:28:086
1.21,4.61,-4.57,0.52,0.11,4.12,-0.28,-2.96,-1.01,5962,2019-03-25 16:18:28:091
1.21,4.61,-4.57,0.52,0.11,4.12,-0.28,-2.96,-1.01,5967,2019-03-25 16:18:28:096
1.21,4.61,-4.57,0.52,0.11,4.12,-0.28,-2.96,-1.01,5971,2019-03-25 16:18:28:100
2.34,3.4,-20.51,1.69,-0.91,-9.71,0.41,0.22,-1.11,5976,2019-03-25 16:18:28:105
2.34,3.4,-20.51,1.69,-0.91,-9.71,0.41,0.22,-1.11,5981,2019-03-25 16:18:28:110
-0.03,4.1,-9.6,1.69,-0.91,-9.71,0.27,-0.06,-0.6,5987,2019-03-25 16:18:28:116
-0.03,4.1,-9.6,1.69,-0.91,-9.71,0.27,-0.06,-0.6,5992,2019-03-25 16:18:28:121
-0.03,4.1,-9.6,1.69,-0.91,-9.71,0.27,-0.06,-0.6,5996,2019-03-25 16:18:28:125
-0.03,4.1,-9.6,1.69,-0.91,-9.71,0.27,-0.06,-0.6,6001,2019-03-25 16:18:28:130
-0.03,4.1,-9.6,1.69,-0.91,-9.71,0.27,-0.06,-0.6,6006,2019-03-25 16:18:28:135
-0.03,4.1,-9.6,1.69,-0.91,-9.71,0.27,-0.06,-0.6,6011,2019-03-25 16:18:28:140
-0.03,4.1,-9.6,1.69,-0.91,-9.71,0.27,-0.06,-0.6,6016,2019-03-25 16:18:28:145
0.5,5.41,-9.21,0.0,0.82,1.01,-0.07,0.04,-0.59,6022,2019-03-25 16:18:28:151
0.5,5.41,-9.21,0.0,0.82,1.01,-0.07,0.04,-0.59,6027,2019-03-25 16:18:28:156
0.5,5.41,-9.21,0.0,0.82,1.01,-0.07,0.04,-0.59,6032,2019-03-25 16:18:28:161
0.5,5.41,-9.21,0.0,0.82,1.01,-0.07,0.04,-0.59,6036,2019-03-25 16:18:28:165
1.92,5.66,-8.57,1.3,0.92,1.61,-0.02,0.01,-0.42,6041,2019-03-25 16:18:28:170
1.92,5.66,-8.57,1.3,0.92,1.61,-0.02,0.01,-0.42,6046,2019-03-25 16:18:28:175
1.92,5.66,-8.57,1.3,0.92,1.61,-0.02,0.01,-0.42,6051,2019-03-25 16:18:28:180
1.07,5.09,-8.76,0.41,0.27,1.44,0.0,0.0,-0.41,6057,2019-03-25 16:18:28:186
1.07,5.09,-8.76,0.41,0.27,1.44,0.0,0.0,-0.41,6062,2019-03-25 16:18:28:191
1.07,5.09,-8.76,0.41,0.27,1.44,0.0,0.0,-0.41,6067,2019-03-25 16:18:28:196
0.66,4.76,-8.41,0.02,-0.12,1.79,0.0,0.0,-0.42,6071,2019-03-25 16:18:28:200
0.66,4.76,-8.41,0.02,-0.12,1.79,0.0,0.0,-0.42,6077,2019-03-25 16:18:28:206
0.66,4.76,-8.41,0.02,-0.12,1.79,0.0,0.0,-0.42,6082,2019-03-25 16:18:28:211
0.53,4.93,-8.74,-0.11,0.04,1.47,0.02,-0.01,-0.45,6086,2019-03-25 16:18:28:215
0.53,4.93,-8.74,-0.11,0.04,1.47,0.02,-0.01,-0.45,6092,2019-03-25 16:18:28:221
0.53,4.93,-8.74,-0.11,0.04,1.47,0.02,-0.01,-0.45,6096,2019-03-25 16:18:28:225
0.53,4.93,-8.74,-0.11,0.04,1.47,0.02,-0.01,-0.45,6102,2019-03-25 16:18:28:231
0.87,5.04,-8.61,0.14,0.22,1.61,0.02,-0.01,-0.53,6106,2019-03-25 16:18:28:235
0.87,5.04,-8.61,0.14,0.22,1.61,0.02,-0.01,-0.53,6112,2019-03-25 16:18:28:241
0.87,5.04,-8.61,0.14,0.22,1.61,0.02,-0.01,-0.53,6117,2019-03-25 16:18:28:246
0.87,5.04,-8.61,0.14,0.22,1.61,0.02,-0.01,-0.53,6121,2019-03-25 16:18:28:250
0.35,4.72,-8.55,-0.41,0.02,1.7,-0.03,0.02,-0.7,6126,2019-03-25 16:18:28:255
0.35,4.72,-8.55,-0.41,0.02,1.7,-0.03,0.02,-0.7,6131,2019-03-25 16:18:28:260
0.35,4.72,-8.55,-0.41,0.02,1.7,-0.03,0.02,-0.7,6136,2019-03-25 16:18:28:265
0.35,4.72,-8.55,-0.41,0.02,1.7,-0.03,0.02,-0.7,6141,2019-03-25 16:18:28:270
0.52,4.63,-8.64,-0.22,-0.03,1.89,0.03,-0.03,-0.75,6146,2019-03-25 16:18:28:275
0.52,4.63,-8.64,-0.22,-0.03,1.89,0.03,-0.03,-0.75,6151,2019-03-25 16:18:28:280
0.52,4.63,-8.64,-0.22,-0.03,1.89,0.03,-0.03,-0.75,6157,2019-03-25 16:18:28:286
0.52,4.63,-8.64,-0.22,-0.03,1.89,0.03,-0.03,-0.75,6162,2019-03-25 16:18:28:291
0.52,4.63,-8.64,-0.22,-0.03,1.89,0.03,-0.03,-0.75,6167,2019-03-25 16:18:28:296
-0.51,4.23,-8.73,-0.77,-0.59,-0.28,0.03,-0.02,-0.78,6172,2019-03-25 16:18:28:301
-0.51,4.23,-8.73,-0.77,-0.59,-0.28,0.03,-0.02,-0.78,6177,2019-03-25 16:18:28:306
-0.51,4.23,-8.73,-0.77,-0.59,-0.28,0.03,-0.02,-0.78,6182,2019-03-25 16:18:28:311
-0.51,4.23,-8.73,-0.77,-0.59,-0.28,0.03,-0.02,-0.78,6187,2019-03-25 16:18:28:316
-0.11,4.59,-8.59,-0.38,-0.28,0.1,-0.04,0.02,-0.63,6191,2019-03-25 16:18:28:320
-0.11,4.59,-8.59,-0.38,-0.28,0.1,-0.04,0.02,-0.63,6197,2019-03-25 16:18:28:326
-0.11,4.59,-8.59,-0.38,-0.28,0.1,-0.04,0.02,-0.63,6202,2019-03-25 16:18:28:331
-0.04,4.04,-8.77,-0.26,-0.5,0.01,-0.01,0.0,-0.53,6207,2019-03-25 16:18:28:336
-0.04,4.04,-8.77,-0.26,-0.5,0.01,-0.01,0.0,-0.53,6212,2019-03-25 16:18:28:341
-0.04,4.04,-8.77,-0.26,-0.5,0.01,-0.01,0.0,-0.53,6217,2019-03-25 16:18:28:346
-0.04,4.04,-8.77,-0.26,-0.5,0.01,-0.01,0.0,-0.53,6222,2019-03-25 16:18:28:351
-0.06,3.68,-8.61,-0.13,-0.69,0.16,0.0,-0.01,-0.34,6226,2019-03-25 16:18:28:355
-0.06,3.68,-8.61,-0.13,-0.69,0.16,0.0,-0.01,-0.34,6231,2019-03-25 16:18:28:360
-0.06,3.68,-8.61,-0.13,-0.69,0.16,0.0,-0.01,-0.34,6237,2019-03-25 16:18:28:366
-0.06,3.68,-8.61,-0.13,-0.69,0.16,0.0,-0.01,-0.34,6242,2019-03-25 16:18:28:371
-0.06,3.68,-8.61,-0.13,-0.69,0.16,0.0,-0.01,-0.34,6247,2019-03-25 16:18:28:376
-0.06,3.68,-8.61,-0.13,-0.69,0.16,0.0,-0.01,-0.34,6252,2019-03-25 16:18:28:381
-1.06,4.68,-8.76,-0.97,0.34,0.0,-0.01,0.0,-0.13,6256,2019-03-25 16:18:28:385
-1.06,4.68,-8.76,-0.97,0.34,0.0,-0.01,0.0,-0.13,6262,2019-03-25 16:18:28:391
-1.06,4.68,-8.76,-0.97,0.34,0.0,-0.01,0.0,-0.13,6267,2019-03-25 16:18:28:396
-1.75,4.61,-8.65,-1.48,0.26,0.11,-0.02,0.0,0.08,6271,2019-03-25 16:18:28:400
-1.75,4.61,-8.65,-1.48,0.26,0.11,-0.02,0.0,0.08,6276,2019-03-25 16:18:28:405
-1.75,4.61,-8.65,-1.48,0.26,0.11,-0.02,0.0,0.08,6282,2019-03-25 16:18:28:411
-1.75,4.61,-8.65,-1.48,0.26,0.11,-0.02,0.0,0.08,6286,2019-03-25 16:18:28:415
-1.15,3.5,-8.64,-0.78,-0.75,0.08,-0.02,0.0,0.49,6292,2019-03-25 16:18:28:421
-1.15,3.5,-8.64,-0.78,-0.75,0.08,-0.02,0.0,0.49,6297,2019-03-25 16:18:28:426
-1.15,3.5,-8.64,-0.78,-0.75,0.08,-0.02,0.0,0.49,6303,2019-03-25 16:18:28:432
0.57,4.36,-8.87,0.92,0.17,-0.14,-0.03,0.0,0.95,6306,2019-03-25 16:18:28:435
0.57,4.36,-8.87,0.92,0.17,-0.14,-0.03,0.0,0.95,6311,2019-03-25 16:18:28:440
0.57,4.36,-8.87,0.92,0.17,-0.14,-0.03,0.0,0.95,6316,2019-03-25 16:18:28:445
0.57,4.36,-8.87,0.92,0.17,-0.14,-0.03,0.0,0.95,6321,2019-03-25 16:18:28:450
1.56,4.78,-9.31,1.69,0.54,-0.55,-0.17,-0.02,0.89,6326,2019-03-25 16:18:28:455
1.56,4.78,-9.31,1.69,0.54,-0.55,-0.17,-0.02,0.89,6332,2019-03-25 16:18:28:461
1.56,4.78,-9.31,1.69,0.54,-0.55,-0.17,-0.02,0.89,6336,2019-03-25 16:18:28:465
1.56,4.78,-9.31,1.69,0.54,-0.55,-0.17,-0.02,0.89,6341,2019-03-25 16:18:28:470
0.91,5.94,-5.44,0.97,1.6,3.12,-0.4,-0.06,0.74,6348,2019-03-25 16:18:28:477
0.91,5.94,-5.44,0.97,1.6,3.12,-0.4,-0.06,0.74,6352,2019-03-25 16:18:28:481
0.91,5.94,-5.44,0.97,1.6,3.12,-0.4,-0.06,0.74,6357,2019-03-25 16:18:28:486
0.91,5.94,-5.44,0.97,1.6,3.12,-0.4,-0.06,0.74,6362,2019-03-25 16:18:28:491
1.33,6.5,-9.36,0.97,1.6,3.12,-0.4,-0.06,0.74,6367,2019-03-25 16:18:28:496
1.33,6.5,-9.36,1.14,1.87,-0.79,-0.14,0.0,0.43,6371,2019-03-25 16:18:28:500
1.33,6.5,-9.36,1.14,1.87,-0.79,-0.14,0.0,0.43,6376,2019-03-25 16:18:28:505
1.33,6.5,-9.36,1.14,1.87,-0.79,-0.14,0.0,0.43,6382,2019-03-25 16:18:28:511
1.33,6.5,-9.36,1.14,1.87,-0.79,-0.14,0.0,0.43,6386,2019-03-25 16:18:28:515
-2.2,5.0,-7.41,-2.26,0.23,1.08,-0.38,-0.05,-0.02,6391,2019-03-25 16:18:28:520
-2.2,5.0,-7.41,-2.26,0.23,1.08,-0.38,-0.05,-0.02,6397,2019-03-25 16:18:28:526
-2.2,5.0,-7.41,-2.26,0.23,1.08,-0.38,-0.05,-0.02,6401,2019-03-25 16:18:28:530
0.43,4.92,-8.78,0.36,0.13,-0.34,-0.09,0.0,0.32,6406,2019-03-25 16:18:28:535
0.43,4.92,-8.78,0.36,0.13,-0.34,-0.09,0.0,0.32,6411,2019-03-25 16:18:28:540
0.43,4.92,-8.78,0.36,0.13,-0.34,-0.09,0.0,0.32,6416,2019-03-25 16:18:28:545
0.43,4.92,-8.78,0.36,0.13,-0.34,-0.09,0.0,0.32,6422,2019-03-25 16:18:28:551
0.43,4.92,-8.78,0.36,0.13,-0.34,-0.09,0.0,0.32,6427,2019-03-25 16:18:28:556
0.43,4.92,-8.78,0.36,0.13,-0.34,-0.09,0.0,0.32,6432,2019-03-25 16:18:28:561
0.8,5.38,-7.94,0.66,0.43,0.45,-0.07,0.0,0.26,6436,2019-03-25 16:18:28:565
0.8,5.38,-7.94,0.66,0.43,0.45,-0.07,0.0,0.26,6442,2019-03-25 16:18:28:571
0.8,5.38,-7.94,0.66,0.43,0.45,-0.07,0.0,0.26,6447,2019-03-25 16:18:28:576
0.8,5.38,-7.94,0.66,0.43,0.45,-0.07,0.0,0.26,6452,2019-03-25 16:18:28:581
0.73,5.2,-8.26,0.46,0.19,0.08,0.11,0.02,0.07,6456,2019-03-25 16:18:28:585
0.73,5.2,-8.26,0.46,0.19,0.08,0.11,0.02,0.07,6461,2019-03-25 16:18:28:590
0.73,5.2,-8.26,0.46,0.19,0.08,0.11,0.02,0.07,6466,2019-03-25 16:18:28:595
-0.59,3.67,-7.68,-0.25,-0.35,0.11,0.19,0.03,-0.01,6471,2019-03-25 16:18:28:600
-0.59,3.67,-7.68,-0.25,-0.35,0.11,0.19,0.03,-0.01,6476,2019-03-25 16:18:28:605
-0.59,3.67,-7.68,-0.25,-0.35,0.11,0.19,0.03,-0.01,6482,2019-03-25 16:18:28:611
-0.62,3.77,-7.82,-1.05,-1.1,0.5,0.33,0.04,0.21,6486,2019-03-25 16:18:28:615
-0.62,3.77,-7.82,-1.05,-1.1,0.5,0.33,0.04,0.21,6491,2019-03-25 16:18:28:620
-0.62,3.77,-7.82,-1.05,-1.1,0.5,0.33,0.04,0.21,6496,2019-03-25 16:18:28:625
-0.62,3.77,-7.82,-1.05,-1.1,0.5,0.33,0.04,0.21,6501,2019-03-25 16:18:28:630
0.23,4.79,-8.64,-0.2,-0.05,-0.29,0.6,0.06,0.6,6506,2019-03-25 16:18:28:635
0.23,4.79,-8.64,-0.2,-0.05,-0.29,0.6,0.06,0.6,6512,2019-03-25 16:18:28:641
0.23,4.79,-8.64,-0.2,-0.05,-0.29,0.6,0.06,0.6,6517,2019-03-25 16:18:28:646
0.23,4.79,-8.64,-0.2,-0.05,-0.29,0.6,0.06,0.6,6521,2019-03-25 16:18:28:650
-0.68,3.52,-9.59,-0.98,-1.15,-1.31,0.04,-0.01,0.56,6526,2019-03-25 16:18:28:655
-0.68,3.52,-9.59,-0.98,-1.15,-1.31,0.04,-0.01,0.56,6532,2019-03-25 16:18:28:661
-0.68,3.52,-9.59,-0.98,-1.15,-1.31,0.04,-0.01,0.56,6537,2019-03-25 16:18:28:666
-0.68,3.52,-9.59,-0.98,-1.15,-1.31,0.04,-0.01,0.56,6541,2019-03-25 16:18:28:670
0.86,4.24,-9.86,0.61,-0.29,-1.38,-0.09,0.0,1.07,6546,2019-03-25 16:18:28:675
0.86,4.24,-9.86,0.61,-0.29,-1.38,-0.09,0.0,1.07,6551,2019-03-25 16:18:28:680
0.86,4.24,-9.86,0.61,-0.29,-1.38,-0.09,0.0,1.07,6556,2019-03-25 16:18:28:685
0.86,4.24,-9.86,0.61,-0.29,-1.38,-0.09,0.0,1.07,6562,2019-03-25 16:18:28:691
0.86,4.24,-9.86,0.61,-0.29,-1.38,-0.09,0.0,1.07,6567,2019-03-25 16:18:28:696
3.39,6.89,-5.97,2.96,2.32,2.31,-0.66,-0.03,1.26,6571,2019-03-25 16:18:28:700
3.39,6.89,-5.97,2.96,2.32,2.31,-0.66,-0.03,1.26,6576,2019-03-25 16:18:28:705
3.39,6.89,-5.97,2.96,2.32,2.31,-0.66,-0.03,1.26,6581,2019-03-25 16:18:28:710
1.26,5.36,-8.9,0.4,0.66,-0.71,0.01,0.0,0.46,6586,2019-03-25 16:18:28:715
1.26,5.36,-8.9,0.4,0.66,-0.71,0.01,0.0,0.46,6591,2019-03-25 16:18:28:720
1.26,5.36,-8.9,0.4,0.66,-0.71,0.01,0.0,0.46,6596,2019-03-25 16:18:28:725
1.26,5.36,-8.9,0.4,0.66,-0.71,0.01,0.0,0.46,6602,2019-03-25 16:18:28:731
1.26,5.36,-8.9,0.4,0.66,-0.71,0.01,0.0,0.46,6607,2019-03-25 16:18:28:736
1.26,5.36,-8.9,0.4,0.66,-0.71,0.01,0.0,0.46,6612,2019-03-25 16:18:28:741
0.41,5.26,-8.88,-0.46,0.5,-0.59,-0.1,-0.01,0.15,6616,2019-03-25 16:18:28:745
0.41,5.26,-8.88,-0.46,0.5,-0.59,-0.1,-0.01,0.15,6621,2019-03-25 16:18:28:750
0.41,5.26,-8.88,-0.46,0.5,-0.59,-0.1,-0.01,0.15,6626,2019-03-25 16:18:28:755
0.41,5.26,-8.88,-0.46,0.5,-0.59,-0.1,-0.01,0.15,6631,2019-03-25 16:18:28:760
0.55,4.82,-8.2,-0.22,0.07,0.06,-0.2,-0.01,0.0,6637,2019-03-25 16:18:28:766
0.55,4.82,-8.2,-0.22,0.07,0.06,-0.2,-0.01,0.0,6642,2019-03-25 16:18:28:771
0.55,4.82,-8.2,-0.22,0.07,0.06,-0.2,-0.01,0.0,6647,2019-03-25 16:18:28:776
0.55,4.82,-8.2,-0.22,0.07,0.06,-0.2,-0.01,0.0,6651,2019-03-25 16:18:28:780
0.55,4.82,-8.2,-0.22,0.07,0.06,-0.2,-0.01,0.0,6657,2019-03-25 16:18:28:786
0.55,4.82,-8.2,-0.22,0.07,0.06,-0.2,-0.01,0.0,6662,2019-03-25 16:18:28:791
0.55,4.82,-8.2,-0.22,0.07,0.06,-0.2,-0.01,0.0,6667,2019-03-25 16:18:28:796
0.55,4.82,-8.2,-0.22,0.07,0.06,-0.2,-0.01,0.0,6671,2019-03-25 16:18:28:800
1.47,5.16,-8.34,0.6,0.3,-0.06,-0.06,0.0,-0.35,6676,2019-03-25 16:18:28:805
1.47,5.16,-8.34,0.6,0.3,-0.06,-0.06,0.0,-0.35,6686,2019-03-25 16:18:28:815
1.47,5.16,-8.34,0.6,0.3,-0.06,-0.06,0.0,-0.35,6687,2019-03-25 16:18:28:816
1.18,4.86,-8.59,0.23,-0.11,-0.23,0.01,0.0,-0.61,6692,2019-03-25 16:18:28:821
1.18,4.86,-8.59,0.23,-0.11,-0.23,0.01,0.0,-0.61,6697,2019-03-25 16:18:28:826
1.18,4.86,-8.59,0.23,-0.11,-0.23,0.01,0.0,-0.61,6702,2019-03-25 16:18:28:831
0.35,4.47,-8.53,-0.56,-0.49,-0.15,-0.03,0.0,-0.79,6707,2019-03-25 16:18:28:836
0.35,4.47,-8.53,-0.56,-0.49,-0.15,-0.03,0.0,-0.79,6712,2019-03-25 16:18:28:841
0.35,4.47,-8.53,-0.56,-0.49,-0.15,-0.03,0.0,-0.79,6717,2019-03-25 16:18:28:846
0.35,4.47,-8.53,-0.56,-0.49,-0.15,-0.03,0.0,-0.79,6722,2019-03-25 16:18:28:851
-0.82,4.36,-8.3,-1.62,-0.65,0.1,-0.03,0.0,-0.67,6726,2019-03-25 16:18:28:855
-0.82,4.36,-8.3,-1.62,-0.65,0.1,-0.03,0.0,-0.67,6732,2019-03-25 16:18:28:861
-0.82,4.36,-8.3,-1.62,-0.65,0.1,-0.03,0.0,-0.67,6737,2019-03-25 16:18:28:866
-0.82,4.36,-8.3,-1.62,-0.65,0.1,-0.03,0.0,-0.67,6741,2019-03-25 16:18:28:870
-0.4,5.03,-8.27,-1.16,-0.1,0.03,0.02,0.0,-0.28,6746,2019-03-25 16:18:28:875
-0.4,5.03,-8.27,-1.16,-0.1,0.03,0.02,0.0,-0.28,6751,2019-03-25 16:18:28:880
-0.4,5.03,-8.27,-1.16,-0.1,0.03,0.02,0.0,-0.28,6757,2019-03-25 16:18:28:886
-0.4,5.03,-8.27,-1.16,-0.1,0.03,0.02,0.0,-0.28,6762,2019-03-25 16:18:28:891
-0.4,5.03,-8.27,-1.16,-0.1,0.03,0.02,0.0,-0.28,6767,2019-03-25 16:18:28:896
0.07,4.72,-7.97,-0.42,-0.26,0.4,0.1,0.01,0.0,6772,2019-03-25 16:18:28:901
0.07,4.72,-7.97,-0.42,-0.26,0.4,0.1,0.01,0.0,6777,2019-03-25 16:18:28:906
0.07,4.72,-7.97,-0.42,-0.26,0.4,0.1,0.01,0.0,6782,2019-03-25 16:18:28:911
-0.22,4.26,-8.05,-0.52,-0.53,0.36,0.27,0.02,0.14,6787,2019-03-25 16:18:28:916
-0.22,4.26,-8.05,-0.52,-0.53,0.36,0.27,0.02,0.14,6792,2019-03-25 16:18:28:921
-0.22,4.26,-8.05,-0.52,-0.53,0.36,0.27,0.02,0.14,6797,2019-03-25 16:18:28:926
-0.22,4.26,-8.05,-0.52,-0.53,0.36,0.27,0.02,0.14,6802,2019-03-25 16:18:28:931
-0.22,4.26,-8.05,-0.52,-0.53,0.36,0.27,0.02,0.14,6806,2019-03-25 16:18:28:935
-0.22,4.26,-8.05,-0.52,-0.53,0.36,0.27,0.02,0.14,6811,2019-03-25 16:18:28:940
0.11,4.34,-8.88,-0.21,-0.29,-0.48,0.4,0.03,0.43,6816,2019-03-25 16:18:28:945
0.11,4.34,-8.88,-0.21,-0.29,-0.48,0.4,0.03,0.43,6821,2019-03-25 16:18:28:950
0.11,4.34,-8.88,-0.21,-0.29,-0.48,0.26,0.03,0.47,6826,2019-03-25 16:18:28:955
0.11,4.34,-8.88,-0.21,-0.29,-0.48,0.26,0.03,0.47,6832,2019-03-25 16:18:28:961
0.11,4.34,-8.88,-0.21,-0.29,-0.48,0.26,0.03,0.47,6836,2019-03-25 16:18:28:965
0.11,4.34,-8.88,-0.21,-0.29,-0.48,0.26,0.03,0.47,6841,2019-03-25 16:18:28:970
1.13,4.12,-13.34,0.6,-0.48,-4.09,-0.85,-0.03,0.28,6847,2019-03-25 16:18:28:976
1.13,4.12,-13.34,0.6,-0.48,-4.09,-0.85,-0.03,0.28,6852,2019-03-25 16:18:28:981
1.13,4.12,-13.34,0.6,-0.48,-4.09,-0.85,-0.03,0.28,6857,2019-03-25 16:18:28:986
1.13,4.12,-13.34,0.6,-0.48,-4.09,-0.85,-0.03,0.28,6862,2019-03-25 16:18:28:991
1.13,4.12,-13.34,0.6,-0.48,-4.09,-0.85,-0.03,0.28,6866,2019-03-25 16:18:28:995
1.13,4.12,-13.34,0.6,-0.48,-4.09,-0.85,-0.03,0.28,6871,2019-03-25 16:18:29:000
0.48,5.97,0.38,0.02,0.98,8.83,-2.25,-0.15,0.04,6877,2019-03-25 16:18:29:006
0.48,5.97,0.38,0.02,0.98,8.83,-2.25,-0.15,0.04,6882,2019-03-25 16:18:29:011
0.48,5.97,0.38,0.02,0.98,8.83,-2.25,-0.15,0.04,6887,2019-03-25 16:18:29:016
-0.16,3.74,-9.24,-0.55,-1.16,-0.92,0.14,0.0,0.11,6892,2019-03-25 16:18:29:021
-0.16,3.74,-9.24,-0.55,-1.16,-0.92,0.14,0.0,0.11,6897,2019-03-25 16:18:29:026
-0.16,3.74,-9.24,-0.55,-1.16,-0.92,0.14,0.0,0.11,6902,2019-03-25 16:18:29:031
1.04,6.52,-8.35,-0.55,-1.16,-0.92,0.09,0.01,0.37,6906,2019-03-25 16:18:29:035
1.04,6.52,-8.35,0.62,1.51,-0.05,0.09,0.01,0.37,6912,2019-03-25 16:18:29:041
1.04,6.52,-8.35,0.62,1.51,-0.05,0.09,0.01,0.37,6917,2019-03-25 16:18:29:046
1.04,6.52,-8.35,0.62,1.51,-0.05,0.09,0.01,0.37,6922,2019-03-25 16:18:29:051
0.28,5.17,-9.34,-0.27,0.04,-0.93,0.02,0.0,0.01,6927,2019-03-25 16:18:29:056
0.28,5.17,-9.34,-0.27,0.04,-0.93,0.02,0.0,0.01,6932,2019-03-25 16:18:29:061
0.28,5.17,-9.34,-0.27,0.04,-0.93,0.02,0.0,0.01,6936,2019-03-25 16:18:29:065
0.28,5.17,-9.34,-0.27,0.04,-0.93,0.02,0.0,0.01,6942,2019-03-25 16:18:29:071
0.28,5.17,-9.34,-0.27,0.04,-0.93,0.02,0.0,0.01,6947,2019-03-25 16:18:29:076
0.28,5.17,-9.34,-0.27,0.04,-0.93,0.02,0.0,0.01,6952,2019-03-25 16:18:29:081
0.66,5.12,-8.04,0.01,-0.02,0.36,-0.2,-0.02,0.01,6957,2019-03-25 16:18:29:086
0.66,5.12,-8.04,0.01,-0.02,0.36,-0.2,-0.02,0.01,6962,2019-03-25 16:18:29:091
0.66,5.12,-8.04,0.01,-0.02,0.36,-0.2,-0.02,0.01,6966,2019-03-25 16:18:29:095
0.71,5.42,-8.39,0.01,0.23,0.03,-0.13,-0.01,0.0,6972,2019-03-25 16:18:29:101
0.71,5.42,-8.39,0.01,0.23,0.03,-0.13,-0.01,0.0,6977,2019-03-25 16:18:29:106
0.71,5.42,-8.39,0.01,0.23,0.03,-0.13,-0.01,0.0,6982,2019-03-25 16:18:29:111
0.65,5.34,-7.25,-0.11,0.08,1.13,0.0,0.0,0.0,6987,2019-03-25 16:18:29:116
0.65,5.34,-7.25,-0.11,0.08,1.13,0.0,0.0,0.0,6992,2019-03-25 16:18:29:121
0.65,5.34,-7.25,-0.11,0.08,1.13,0.0,0.0,0.0,6997,2019-03-25 16:18:29:126
0.65,5.34,-7.25,-0.11,0.08,1.13,0.0,0.0,0.0,7002,2019-03-25 16:18:29:131
1.59,5.79,-8.96,0.68,0.47,-0.52,0.27,0.02,-0.1,7007,2019-03-25 16:18:29:136
1.59,5.79,-8.96,0.68,0.47,-0.52,0.27,0.02,-0.1,7012,2019-03-25 16:18:29:141
1.59,5.79,-8.96,0.68,0.47,-0.52,0.27,0.02,-0.1,7017,2019-03-25 16:18:29:146
1.59,5.79,-8.96,0.68,0.47,-0.52,0.27,0.02,-0.1,7022,2019-03-25 16:18:29:151
0.5,5.06,-7.87,-0.34,-0.22,0.55,0.07,0.0,-0.45,7026,2019-03-25 16:18:29:155
0.5,5.06,-7.87,-0.34,-0.22,0.55,0.07,0.0,-0.45,7031,2019-03-25 16:18:29:160
0.5,5.06,-7.87,-0.34,-0.22,0.55,0.07,0.0,-0.45,7041,2019-03-25 16:18:29:170
0.5,5.06,-7.87,-0.34,-0.22,0.55,0.07,0.0,-0.45,7041,2019-03-25 16:18:29:170
0.25,4.96,-7.93,-0.42,-0.32,-0.34,0.17,0.02,-0.47,7046,2019-03-25 16:18:29:175
0.25,4.96,-7.93,-0.42,-0.32,-0.34,0.17,0.02,-0.47,7052,2019-03-25 16:18:29:181
0.25,4.96,-7.93,-0.42,-0.32,-0.34,0.17,0.02,-0.47,7059,2019-03-25 16:18:29:188
0.25,4.96,-7.93,-0.42,-0.32,-0.34,0.17,0.02,-0.47,7062,2019-03-25 16:18:29:191
0.25,4.96,-7.93,-0.42,-0.32,-0.34,0.17,0.02,-0.47,7066,2019-03-25 16:18:29:195
0.47,4.93,-7.88,-0.11,-0.23,0.28,0.36,0.03,-0.39,7071,2019-03-25 16:18:29:200
0.47,4.93,-7.88,-0.11,-0.23,0.28,0.36,0.03,-0.39,7079,2019-03-25 16:18:29:208
0.47,4.93,-7.88,-0.11,-0.23,0.28,0.36,0.03,-0.39,7083,2019-03-25 16:18:29:212
0.47,4.93,-7.88,-0.11,-0.23,0.28,0.36,0.03,-0.39,7087,2019-03-25 16:18:29:216
0.93,4.86,-8.91,0.31,-0.34,-0.58,0.55,0.06,-0.37,7091,2019-03-25 16:18:29:220
0.93,4.86,-8.91,0.31,-0.34,-0.58,0.55,0.06,-0.37,7097,2019-03-25 16:18:29:226
0.93,4.86,-8.91,0.31,-0.34,-0.58,0.55,0.06,-0.37,7101,2019-03-25 16:18:29:230
0.93,4.86,-8.91,0.31,-0.34,-0.58,0.55,0.06,-0.37,7106,2019-03-25 16:18:29:235
0.73,4.49,-8.29,0.1,-0.5,0.09,0.46,0.05,-0.48,7112,2019-03-25 16:18:29:241
0.73,4.49,-8.29,0.1,-0.5,0.09,0.46,0.05,-0.48,7116,2019-03-25 16:18:29:245
0.73,4.49,-8.29,0.1,-0.5,0.09,0.46,0.05,-0.48,7122,2019-03-25 16:18:29:251
-0.09,4.53,-8.63,-0.61,-0.28,-0.28,0.56,0.06,-0.55,7128,2019-03-25 16:18:29:257
-0.09,4.53,-8.63,-0.61,-0.28,-0.28,0.56,0.06,-0.55,7132,2019-03-25 16:18:29:261
-0.09,4.53,-8.63,-0.61,-0.28,-0.28,0.56,0.06,-0.55,7136,2019-03-25 16:18:29:265
-0.09,4.53,-8.63,-0.61,-0.28,-0.28,0.56,0.06,-0.55,7141,2019-03-25 16:18:29:270
-0.1,4.63,-8.86,-0.54,-0.08,-0.4,0.55,0.06,-0.4,7147,2019-03-25 16:18:29:276
-0.1,4.63,-8.86,-0.54,-0.08,-0.4,0.55,0.06,-0.4,7152,2019-03-25 16:18:29:281
-0.1,4.63,-8.86,-0.54,-0.08,-0.4,0.55,0.06,-0.4,7156,2019-03-25 16:18:29:285
-0.1,4.63,-8.86,-0.54,-0.08,-0.4,0.55,0.06,-0.4,7161,2019-03-25 16:18:29:290
-0.1,4.63,-8.86,-0.54,-0.08,-0.4,0.55,0.06,-0.4,7166,2019-03-25 16:18:29:295
0.03,5.32,-7.56,-0.33,0.65,1.01,0.33,0.02,-0.2,7172,2019-03-25 16:18:29:301
0.03,5.32,-7.56,-0.33,0.65,1.01,0.33,0.02,-0.2,7176,2019-03-25 16:18:29:305
0.03,5.32,-7.56,-0.33,0.65,1.01,0.33,0.02,-0.2,7181,2019-03-25 16:18:29:310
0.03,5.32,-7.56,-0.33,0.65,1.01,0.33,0.02,-0.2,7187,2019-03-25 16:18:29:316
0.33,4.81,-8.54,-0.03,0.13,0.1,-0.03,0.0,0.0,7192,2019-03-25 16:18:29:321
0.33,4.81,-8.54,-0.03,0.13,0.1,-0.03,0.0,0.0,7196,2019-03-25 16:18:29:325
0.33,4.81,-8.54,-0.03,0.13,0.1,-0.03,0.0,0.0,7201,2019-03-25 16:18:29:330
0.39,4.7,-8.76,0.1,0.08,-0.13,-0.01,0.0,0.0,7210,2019-03-25 16:18:29:339
0.39,4.7,-8.76,0.1,0.08,-0.13,-0.01,0.0,0.0,7212,2019-03-25 16:18:29:341
0.39,4.7,-8.76,0.1,0.08,-0.13,0.0,0.0,0.0,7217,2019-03-25 16:18:29:346
0.39,4.7,-8.76,0.1,0.08,-0.13,0.0,0.0,0.0,7222,2019-03-25 16:18:29:351
0.39,4.7,-8.76,0.1,0.08,-0.13,0.0,0.0,0.0,7227,2019-03-25 16:18:29:356
0.29,4.75,-8.63,0.03,0.14,0.0,-0.01,0.0,0.0,7232,2019-03-25 16:18:29:361
0.29,4.75,-8.63,0.03,0.14,0.0,-0.01,0.0,0.0,7236,2019-03-25 16:18:29:365
0.29,4.75,-8.63,0.03,0.14,0.0,-0.01,0.0,0.0,7241,2019-03-25 16:18:29:370
0.24,4.64,-8.77,0.03,0.14,0.0,0.0,0.0,0.0,7246,2019-03-25 16:18:29:375
0.24,4.64,-8.77,-0.04,0.01,-0.08,0.0,0.0,0.0,7252,2019-03-25 16:18:29:381
0.24,4.64,-8.77,-0.04,0.01,-0.08,0.0,0.0,0.0,7256,2019-03-25 16:18:29:385
0.24,4.64,-8.77,-0.04,0.01,-0.08,0.0,0.0,0.0,7262,2019-03-25 16:18:29:391
0.24,4.64,-8.77,-0.04,0.01,-0.08,0.0,0.0,0.0,7266,2019-03-25 16:18:29:395
0.24,4.64,-8.77,-0.04,0.01,-0.08,0.0,0.0,0.0,7271,2019-03-25 16:18:29:400
1.72,6.06,-8.42,1.43,1.47,0.66,-0.27,-0.02,0.08,7276,2019-03-25 16:18:29:405
1.72,6.06,-8.42,1.43,1.47,0.66,-0.27,-0.02,0.08,7282,2019-03-25 16:18:29:411
1.72,6.06,-8.42,1.43,1.47,0.66,-0.27,-0.02,0.08,7287,2019-03-25 16:18:29:416
0.81,5.37,-7.75,0.56,0.68,1.14,-0.44,-0.06,0.03,7292,2019-03-25 16:18:29:421
0.81,5.37,-7.75,0.56,0.68,1.14,-0.44,-0.06,0.03,7298,2019-03-25 16:18:29:427
0.81,5.37,-7.75,0.56,0.68,1.14,-0.44,-0.06,0.03,7301,2019-03-25 16:18:29:430
0.47,4.77,-9.17,0.25,0.03,-0.29,-0.03,0.0,0.04,7307,2019-03-25 16:18:29:436
0.47,4.77,-9.17,0.25,0.03,-0.29,-0.03,0.0,0.04,7312,2019-03-25 16:18:29:441
0.47,4.77,-9.17,0.25,0.03,-0.29,-0.03,0.0,0.04,7317,2019-03-25 16:18:29:446
0.47,4.77,-9.17,0.25,0.03,-0.29,-0.03,0.0,0.04,7321,2019-03-25 16:18:29:450
0.43,4.82,-8.63,0.15,0.06,0.27,-0.04,0.0,0.0,7327,2019-03-25 16:18:29:456
0.43,4.82,-8.63,0.15,0.06,0.27,-0.04,0.0,0.0,7332,2019-03-25 16:18:29:461
0.43,4.82,-8.63,0.15,0.06,0.27,-0.04,0.0,0.0,7337,2019-03-25 16:18:29:466
0.43,4.82,-8.63,0.15,0.06,0.27,-0.04,0.0,0.0,7341,2019-03-25 16:18:29:470
0.34,4.75,-8.58,0.02,-0.01,0.29,-0.12,-0.01,0.0,7347,2019-03-25 16:18:29:476
0.34,4.75,-8.58,0.02,-0.01,0.29,-0.12,-0.01,0.0,7352,2019-03-25 16:18:29:481
0.34,4.75,-8.58,0.02,-0.01,0.29,-0.12,-0.01,0.0,7357,2019-03-25 16:18:29:486
0.34,4.75,-8.58,0.02,-0.01,0.29,-0.12,-0.01,0.0,7362,2019-03-25 16:18:29:491
0.34,4.75,-8.58,0.02,-0.01,0.29,-0.12,-0.01,0.0,7367,2019-03-25 16:18:29:496
0.1,4.47,-9.93,-0.22,-0.19,-1.01,-0.1,-0.01,0.0,7373,2019-03-25 16:18:29:502
0.1,4.47,-9.93,-0.22,-0.19,-1.01,-0.1,-0.01,0.0,7376,2019-03-25 16:18:29:505
0.1,4.47,-9.93,-0.22,-0.19,-1.01,-0.1,-0.01,0.0,7382,2019-03-25 16:18:29:511
0.1,4.47,-9.93,-0.22,-0.19,-1.01,-0.1,-0.01,0.0,7386,2019-03-25 16:18:29:515
-1.79,3.66,-11.08,-1.94,-0.97,-2.07,-0.35,-0.05,0.2,7392,2019-03-25 16:18:29:521
-1.79,3.66,-11.08,-1.94,-0.97,-2.07,-0.35,-0.05,0.2,7398,2019-03-25 16:18:29:527
-1.79,3.66,-11.08,-1.94,-0.97,-2.07,-0.35,-0.05,0.2,7402,2019-03-25 16:18:29:531
1.75,5.21,-6.64,1.56,0.42,2.15,-1.15,-0.14,0.99,7407,2019-03-25 16:18:29:536
1.75,5.21,-6.64,1.56,0.42,2.15,-1.15,-0.14,0.99,7412,2019-03-25 16:18:29:541
1.75,5.21,-6.64,1.56,0.42,2.15,-1.15,-0.14,0.99,7418,2019-03-25 16:18:29:547
1.75,5.21,-6.64,1.56,0.42,2.15,-1.15,-0.14,0.99,7422,2019-03-25 16:18:29:551
1.75,5.21,-6.64,1.56,0.42,2.15,-1.15,-0.14,0.99,7427,2019-03-25 16:18:29:556
1.75,5.21,-6.64,1.56,0.42,2.15,-1.15,-0.14,0.99,7432,2019-03-25 16:18:29:561
1.8,5.67,-7.54,1.42,0.73,1.05,-0.64,-0.06,0.97,7438,2019-03-25 16:18:29:567
1.8,5.67,-7.54,1.42,0.73,1.05,-0.64,-0.06,0.97,7442,2019-03-25 16:18:29:571
1.8,5.67,-7.54,-0.09,0.13,0.52,-0.35,-0.02,0.68,7446,2019-03-25 16:18:29:575
1.8,5.67,-7.54,-0.09,0.13,0.52,-0.35,-0.02,0.68,7452,2019-03-25 16:18:29:581
1.8,5.67,-7.54,-0.09,0.13,0.52,-0.35,-0.02,0.68,7458,2019-03-25 16:18:29:587
1.8,5.67,-7.54,-0.09,0.13,0.52,-0.35,-0.02,0.68,7462,2019-03-25 16:18:29:591
1.8,5.67,-7.54,-0.09,0.13,0.52,-0.35,-0.02,0.68,7467,2019-03-25 16:18:29:596
1.8,5.67,-7.54,-0.09,0.13,0.52,-0.35,-0.02,0.68,7472,2019-03-25 16:18:29:601
0.82,5.41,-7.47,0.24,0.23,0.57,-0.23,-0.01,0.34,7477,2019-03-25 16:18:29:606
0.82,5.41,-7.47,0.24,0.23,0.57,-0.23,-0.01,0.34,7482,2019-03-25 16:18:29:611
1.26,5.56,-8.17,0.24,0.23,0.57,0.06,0.0,0.26,7487,2019-03-25 16:18:29:616
1.26,5.56,-8.17,0.24,0.23,0.57,0.06,0.0,0.26,7492,2019-03-25 16:18:29:621
1.26,5.56,-8.17,0.24,0.23,0.57,0.06,0.0,0.26,7497,2019-03-25 16:18:29:626
1.26,5.56,-8.17,0.24,0.23,0.57,0.06,0.0,0.26,7501,2019-03-25 16:18:29:630
0.66,5.16,-8.05,0.0,-0.03,0.1,0.07,0.0,0.2,7507,2019-03-25 16:18:29:636
0.66,5.16,-8.05,0.0,-0.03,0.1,0.07,0.0,0.2,7512,2019-03-25 16:18:29:641
0.66,5.16,-8.05,0.0,-0.03,0.1,0.07,0.0,0.2,7517,2019-03-25 16:18:29:646
0.66,5.16,-8.05,0.0,-0.03,0.1,0.07,0.0,0.2,7522,2019-03-25 16:18:29:651
0.36,4.79,-8.34,-0.25,-0.32,-0.17,0.11,0.01,0.19,7526,2019-03-25 16:18:29:655
0.36,4.79,-8.34,-0.25,-0.32,-0.17,0.11,0.01,0.19,7532,2019-03-25 16:18:29:661
0.36,4.79,-8.34,-0.25,-0.32,-0.17,0.11,0.01,0.19,7537,2019-03-25 16:18:29:666
0.36,4.79,-8.34,-0.25,-0.32,-0.17,0.11,0.01,0.19,7542,2019-03-25 16:18:29:671
0.47,4.59,-8.58,-0.15,-0.43,-0.38,0.05,0.01,0.34,7548,2019-03-25 16:18:29:677
0.47,4.59,-8.58,-0.15,-0.43,-0.38,0.05,0.01,0.34,7551,2019-03-25 16:18:29:680
0.47,4.59,-8.58,-0.15,-0.43,-0.38,0.05,0.01,0.34,7557,2019-03-25 16:18:29:686
0.47,4.59,-8.58,-0.15,-0.43,-0.38,0.05,0.01,0.34,7562,2019-03-25 16:18:29:691
0.47,4.59,-8.58,-0.15,-0.43,-0.38,0.05,0.01,0.34,7566,2019-03-25 16:18:29:695
2.39,5.45,-8.5,1.6,0.42,-0.34,-0.02,0.0,0.43,7572,2019-03-25 16:18:29:701
2.39,5.45,-8.5,1.6,0.42,-0.34,-0.02,0.0,0.43,7577,2019-03-25 16:18:29:706
2.39,5.45,-8.5,1.6,0.42,-0.34,-0.02,0.0,0.43,7582,2019-03-25 16:18:29:711
2.39,5.45,-8.5,1.6,0.42,-0.34,-0.02,0.0,0.43,7586,2019-03-25 16:18:29:715
0.88,5.2,-8.01,-0.15,0.07,-0.02,-0.09,0.0,0.05,7592,2019-03-25 16:18:29:721
0.88,5.2,-8.01,-0.15,0.07,-0.02,-0.09,0.0,0.05,7596,2019-03-25 16:18:29:725
0.88,5.2,-8.01,-0.15,0.07,-0.02,-0.09,0.0,0.05,7602,2019-03-25 16:18:29:731
0.96,5.87,-8.55,-0.08,0.66,-0.45,0.03,0.0,-0.09,7606,2019-03-25 16:18:29:735
0.96,5.87,-8.55,-0.08,0.66,-0.45,0.03,0.0,-0.09,7611,2019-03-25 16:18:29:740
0.96,5.87,-8.55,-0.08,0.66,-0.45,0.03,0.0,-0.09,7617,2019-03-25 16:18:29:746
0.96,5.87,-8.55,-0.08,0.66,-0.45,0.03,0.0,-0.09,7623,2019-03-25 16:18:29:752
0.76,5.42,-8.57,-0.18,0.17,-0.35,-0.03,0.0,-0.18,7627,2019-03-25 16:18:29:756
0.76,5.42,-8.57,-0.18,0.17,-0.35,-0.03,0.0,-0.18,7632,2019-03-25 16:18:29:761
0.76,5.42,-8.57,-0.18,0.17,-0.35,-0.03,0.0,-0.18,7641,2019-03-25 16:18:29:770
0.76,5.42,-8.57,-0.18,0.17,-0.35,-0.03,0.0,-0.18,7641,2019-03-25 16:18:29:770
0.78,5.33,-8.3,-0.09,0.07,-0.05,-0.12,0.0,-0.18,7650,2019-03-25 16:18:29:779
0.78,5.33,-8.3,-0.09,0.07,-0.05,-0.12,0.0,-0.18,7651,2019-03-25 16:18:29:780
0.78,5.33,-8.3,-0.09,0.07,-0.05,-0.12,0.0,-0.18,7659,2019-03-25 16:18:29:788
0.78,5.33,-8.3,-0.09,0.07,-0.05,-0.12,0.0,-0.18,7661,2019-03-25 16:18:29:790
0.78,5.33,-8.3,-0.09,0.07,-0.05,-0.12,0.0,-0.18,7667,2019-03-25 16:18:29:796
0.78,5.33,-8.3,-0.09,0.07,-0.05,-0.12,0.0,-0.18,7672,2019-03-25 16:18:29:801
0.65,5.12,-8.22,-0.2,-0.14,0.07,-0.16,0.0,-0.16,7677,2019-03-25 16:18:29:806
0.65,5.12,-8.22,-0.2,-0.14,0.07,-0.16,0.0,-0.16,7682,2019-03-25 16:18:29:811
0.65,5.12,-8.22,-0.2,-0.14,0.07,-0.16,0.0,-0.16,7687,2019-03-25 16:18:29:816
0.65,5.12,-8.22,-0.2,-0.14,0.07,-0.16,0.0,-0.16,7691,2019-03-25 16:18:29:820
0.52,5.05,-8.19,-0.28,-0.22,0.1,-0.15,0.0,-0.14,7696,2019-03-25 16:18:29:825
0.52,5.05,-8.19,-0.28,-0.22,0.1,-0.15,0.0,-0.14,7701,2019-03-25 16:18:29:830
0.41,5.1,-7.52,-0.28,-0.22,0.1,-0.11,-0.01,-0.08,7707,2019-03-25 16:18:29:836
0.41,5.1,-7.52,0.06,0.15,0.48,-0.11,-0.01,-0.08,7712,2019-03-25 16:18:29:841
0.41,5.1,-7.52,0.06,0.15,0.48,-0.11,-0.01,-0.08,7717,2019-03-25 16:18:29:846
0.74,5.3,-8.09,0.06,0.15,0.48,-0.11,-0.01,-0.08,7724,2019-03-25 16:18:29:853
0.74,5.3,-8.09,-0.04,-0.03,0.1,0.1,0.0,0.0,7726,2019-03-25 16:18:29:855
0.74,5.3,-8.09,-0.04,-0.03,0.1,0.1,0.0,0.0,7732,2019-03-25 16:18:29:861
0.74,5.3,-8.09,-0.04,-0.03,0.1,0.1,0.0,0.0,7740,2019-03-25 16:18:29:869
0.74,5.3,-8.09,-0.04,-0.03,0.1,0.1,0.0,0.0,7741,2019-03-25 16:18:29:870
0.74,5.3,-8.09,-0.04,-0.03,0.1,0.1,0.0,0.0,7747,2019-03-25 16:18:29:876
0.74,5.3,-8.09,-0.04,-0.03,0.1,0.1,0.0,0.0,7751,2019-03-25 16:18:29:880
0.8,5.23,-8.38,-0.02,-0.11,-0.18,0.15,0.0,0.0,7756,2019-03-25 16:18:29:885
0.8,5.23,-8.38,-0.02,-0.11,-0.18,0.15,0.0,0.0,7761,2019-03-25 16:18:29:890
0.8,5.23,-8.38,-0.02,-0.11,-0.18,0.15,0.0,0.0,7767,2019-03-25 16:18:29:896
0.64,5.34,-8.56,-0.07,-0.02,-0.34,0.06,0.0,0.0,7772,2019-03-25 16:18:29:901
0.64,5.34,-8.56,-0.07,-0.02,-0.34,0.06,0.0,0.0,7777,2019-03-25 16:18:29:906
0.64,5.34,-8.56,-0.07,-0.02,-0.34,0.06,0.0,0.0,7782,2019-03-25 16:18:29:911
0.64,5.34,-8.56,-0.07,-0.02,-0.34,0.06,0.0,0.0,7786,2019-03-25 16:18:29:915
0.71,5.29,-8.13,0.03,-0.07,0.1,-0.05,0.0,0.0,7791,2019-03-25 16:18:29:920
