ACCELEROMETER X (m/s²),ACCELEROMETER Y (m/s²),ACCELEROMETER Z (m/s²),LINEAR ACCELERATION X (m/s²),LINEAR ACCELERATION Y (m/s²),LINEAR ACCELERATION Z (m/s²),GYROSCOPE X (rad/s),GYROSCOPE Y (rad/s),GYROSCOPE Z (rad/s),Time since start in ms ,YYYY-MO-DD HH-MI-SS_SSS
0.01,0.33,9.9,-0.07,0.04,0.0,0.0,0.0,0.0,5,2019-04-03 15:51:30:708
0.01,0.33,9.9,-0.07,0.04,0.0,0.0,0.0,0.0,10,2019-04-03 15:51:30:713
0.01,0.33,9.9,-0.07,0.04,0.0,0.0,0.0,0.0,14,2019-04-03 15:51:30:717
0.01,0.33,9.9,-0.07,0.04,0.0,0.0,0.0,0.0,20,2019-04-03 15:51:30:723
0.01,0.33,9.9,-0.07,0.04,0.0,0.0,0.0,0.0,25,2019-04-03 15:51:30:728
0.01,0.33,9.9,-0.07,0.04,0.0,0.0,0.0,0.0,30,2019-04-03 15:51:30:733
0.06,0.32,9.89,-0.07,0.04,0.0,0.0,0.0,0.0,34,2019-04-03 15:51:30:737
0.06,0.32,9.89,0.0,0.02,-0.01,0.0,0.0,0.0,40,2019-04-03 15:51:30:743
0.06,0.32,9.89,0.0,0.02,-0.01,0.0,0.0,0.0,45,2019-04-03 15:51:30:748
0.06,0.32,9.89,0.0,0.02,-0.01,0.0,0.0,0.0,50,2019-04-03 15:51:30:753
0.06,0.32,9.89,0.0,0.02,-0.01,0.0,0.0,0.0,55,2019-04-03 15:51:30:758
0.06,0.32,9.89,0.0,0.02,-0.01,0.0,0.0,0.0,60,2019-04-03 15:51:30:763
0.12,0.37,9.85,0.06,0.06,-0.05,0.0,0.0,0.0,65,2019-04-03 15:51:30:768
0.12,0.37,9.85,0.06,0.06,-0.05,0.0,0.0,0.0,70,2019-04-03 15:51:30:773
0.12,0.37,9.85,0.06,0.06,-0.05,0.0,0.0,0.0,75,2019-04-03 15:51:30:778
0.12,0.37,9.85,0.06,0.06,-0.05,0.0,0.0,0.0,80,2019-04-03 15:51:30:783
0.12,0.37,9.85,0.06,0.06,-0.05,0.0,0.0,0.0,85,2019-04-03 15:51:30:788
0.12,0.37,9.85,0.06,0.06,-0.05,0.0,0.0,0.0,90,2019-04-03 15:51:30:793
0.13,0.33,9.92,0.07,0.0,0.02,0.0,0.0,0.0,97,2019-04-03 15:51:30:800
0.13,0.33,9.92,0.07,0.0,0.02,0.0,0.0,0.0,100,2019-04-03 15:51:30:803
0.13,0.33,9.92,0.07,0.0,0.02,0.0,0.0,0.0,105,2019-04-03 15:51:30:808
0.13,0.33,9.92,0.07,0.0,0.02,0.0,0.0,0.0,110,2019-04-03 15:51:30:813
0.13,0.33,9.92,0.07,0.0,0.02,0.0,0.0,0.0,116,2019-04-03 15:51:30:819
0.13,0.33,9.92,0.07,0.0,0.02,0.0,0.0,0.0,120,2019-04-03 15:51:30:823
0.13,0.33,9.92,0.07,0.0,0.02,0.0,0.0,0.0,125,2019-04-03 15:51:30:828
0.03,0.36,9.9,0.07,0.0,0.02,0.0,0.0,0.0,131,2019-04-03 15:51:30:834
0.03,0.36,9.9,-0.03,0.03,0.0,0.0,0.0,0.0,138,2019-04-03 15:51:30:841
0.03,0.36,9.9,-0.03,0.03,0.0,0.0,0.0,0.0,140,2019-04-03 15:51:30:843
0.03,0.36,9.9,-0.03,0.03,0.0,0.0,-0.01,0.0,145,2019-04-03 15:51:30:848
0.03,0.36,9.9,-0.03,0.03,0.0,0.0,-0.01,0.0,150,2019-04-03 15:51:30:853
0.03,0.36,9.9,-0.03,0.03,0.0,0.0,-0.01,0.0,155,2019-04-03 15:51:30:858
0.03,0.36,9.9,-0.03,0.03,0.0,0.0,-0.01,0.0,160,2019-04-03 15:51:30:863
0.13,0.4,9.9,0.04,0.05,0.01,0.0,0.0,0.0,165,2019-04-03 15:51:30:868
0.13,0.4,9.9,0.04,0.05,0.01,0.0,0.0,0.0,170,2019-04-03 15:51:30:873
0.13,0.4,9.9,0.04,0.05,0.01,0.0,0.0,0.0,175,2019-04-03 15:51:30:878
0.13,0.4,9.9,0.04,0.05,0.01,0.0,0.0,0.0,180,2019-04-03 15:51:30:883
0.24,0.49,10.05,0.13,0.13,0.14,0.0,0.0,0.0,185,2019-04-03 15:51:30:888
0.24,0.49,10.05,0.13,0.13,0.14,0.0,0.0,0.0,189,2019-04-03 15:51:30:892
0.24,0.49,10.05,0.13,0.13,0.14,0.0,0.0,0.0,195,2019-04-03 15:51:30:898
0.24,0.49,10.05,0.13,0.13,0.14,0.0,0.0,0.0,201,2019-04-03 15:51:30:904
-0.1,0.44,9.8,0.0,0.13,0.06,0.0,0.0,0.0,205,2019-04-03 15:51:30:908
-0.1,0.44,9.8,0.0,0.13,0.06,0.0,0.0,0.0,210,2019-04-03 15:51:30:913
-0.1,0.44,9.8,0.0,0.13,0.06,0.0,0.01,0.0,215,2019-04-03 15:51:30:918
-0.1,0.44,9.8,0.0,0.13,0.06,0.0,0.01,0.0,220,2019-04-03 15:51:30:923
-0.1,0.44,9.8,0.0,0.13,0.06,0.0,0.01,0.0,225,2019-04-03 15:51:30:928
-0.1,0.44,9.8,0.0,0.13,0.06,0.0,0.01,0.0,230,2019-04-03 15:51:30:933
0.58,0.56,9.82,0.46,0.17,-0.1,0.0,0.0,0.0,235,2019-04-03 15:51:30:938
0.58,0.56,9.82,0.46,0.17,-0.1,0.0,0.0,0.0,240,2019-04-03 15:51:30:943
0.58,0.56,9.82,0.46,0.17,-0.1,0.0,0.06,0.01,245,2019-04-03 15:51:30:948
0.58,0.56,9.82,0.46,0.17,-0.1,0.0,0.06,0.01,250,2019-04-03 15:51:30:953
0.58,0.56,9.82,0.46,0.17,-0.1,0.0,0.06,0.01,255,2019-04-03 15:51:30:958
0.58,0.56,9.82,0.46,0.17,-0.1,0.0,0.06,0.01,260,2019-04-03 15:51:30:963
-0.88,0.35,8.43,-0.94,-0.02,-1.33,-0.02,-0.08,0.0,265,2019-04-03 15:51:30:968
-0.88,0.35,8.43,-0.94,-0.02,-1.33,-0.02,-0.08,0.0,270,2019-04-03 15:51:30:973
-0.88,0.35,8.43,-0.94,-0.02,-1.33,-0.02,-0.08,0.0,275,2019-04-03 15:51:30:978
-0.88,0.35,8.43,-0.94,-0.02,-1.33,-0.02,-0.08,0.0,280,2019-04-03 15:51:30:983
-0.16,0.05,10.01,-0.19,-0.31,0.31,-0.01,-0.01,0.01,285,2019-04-03 15:51:30:988
-0.16,0.05,10.01,-0.19,-0.31,0.31,-0.01,-0.01,0.01,290,2019-04-03 15:51:30:993
-0.16,0.05,10.01,-0.19,-0.31,0.31,-0.01,-0.01,0.01,295,2019-04-03 15:51:30:998
-0.16,0.05,10.01,-0.19,-0.31,0.31,-0.01,-0.01,0.01,300,2019-04-03 15:51:31:003
0.49,0.21,10.45,0.47,-0.16,0.72,0.0,-0.03,0.01,305,2019-04-03 15:51:31:008
0.49,0.21,10.45,0.47,-0.16,0.72,0.0,-0.03,0.01,310,2019-04-03 15:51:31:013
0.49,0.21,10.45,0.47,-0.16,0.72,0.0,-0.03,0.01,315,2019-04-03 15:51:31:018
0.49,0.21,10.45,0.47,-0.16,0.72,0.0,-0.03,0.01,321,2019-04-03 15:51:31:024
0.49,0.21,10.45,0.47,-0.16,0.72,0.0,-0.03,0.01,325,2019-04-03 15:51:31:028
0.49,0.21,10.45,0.47,-0.16,0.72,0.0,-0.03,0.01,329,2019-04-03 15:51:31:032
0.02,0.24,10.33,0.0,-0.12,0.58,-0.01,0.01,0.01,334,2019-04-03 15:51:31:037
0.02,0.24,10.33,0.0,-0.12,0.58,-0.01,0.01,0.01,340,2019-04-03 15:51:31:043
-0.14,0.21,9.7,-0.15,-0.14,-0.05,0.0,-0.02,0.0,345,2019-04-03 15:51:31:048
-0.14,0.21,9.7,-0.15,-0.14,-0.05,0.0,-0.02,0.0,350,2019-04-03 15:51:31:053
-0.14,0.21,9.7,-0.15,-0.14,-0.05,0.0,-0.02,0.0,355,2019-04-03 15:51:31:058
-0.14,0.21,9.7,-0.15,-0.14,-0.05,0.0,-0.02,0.0,360,2019-04-03 15:51:31:063
-0.14,0.21,9.7,-0.15,-0.14,-0.05,0.0,-0.02,0.0,365,2019-04-03 15:51:31:068
-0.14,0.21,9.7,-0.15,-0.14,-0.05,0.0,-0.02,0.0,370,2019-04-03 15:51:31:073
-0.23,0.28,10.05,-0.23,-0.07,0.26,0.0,-0.02,0.0,376,2019-04-03 15:51:31:079
-0.23,0.28,10.05,-0.23,-0.07,0.26,0.0,-0.02,0.0,380,2019-04-03 15:51:31:083
-0.04,-0.08,9.84,-0.03,-0.37,0.04,-0.01,0.0,0.0,386,2019-04-03 15:51:31:089
-0.04,-0.08,9.84,-0.03,-0.37,0.04,-0.01,0.0,0.0,390,2019-04-03 15:51:31:093
-0.04,-0.08,9.84,-0.03,-0.37,0.04,-0.01,0.0,0.0,396,2019-04-03 15:51:31:099
-0.04,-0.08,9.84,-0.03,-0.37,0.04,-0.01,0.0,0.0,400,2019-04-03 15:51:31:103
-0.04,-0.08,9.84,-0.03,-0.37,0.04,-0.01,0.0,0.0,405,2019-04-03 15:51:31:108
-0.04,-0.08,9.84,-0.03,-0.37,0.04,-0.01,0.0,0.0,411,2019-04-03 15:51:31:114
0.2,0.1,9.73,0.21,-0.16,-0.05,0.0,0.02,0.0,416,2019-04-03 15:51:31:119
0.2,0.1,9.73,0.21,-0.16,-0.05,0.0,0.02,0.0,420,2019-04-03 15:51:31:123
0.2,0.1,9.73,0.21,-0.16,-0.05,0.0,0.02,0.0,425,2019-04-03 15:51:31:128
0.2,0.1,9.73,0.21,-0.16,-0.05,0.0,0.02,0.0,429,2019-04-03 15:51:31:132
0.72,0.32,10.13,0.64,0.05,0.34,0.01,-0.01,0.0,435,2019-04-03 15:51:31:138
0.72,0.32,10.13,0.64,0.05,0.34,0.01,-0.01,0.0,441,2019-04-03 15:51:31:144
0.72,0.32,10.13,0.64,0.05,0.34,0.0,0.01,0.02,444,2019-04-03 15:51:31:147
0.72,0.32,10.13,0.62,0.15,0.04,0.0,0.01,0.02,451,2019-04-03 15:51:31:154
0.72,0.32,10.13,0.62,0.15,0.04,0.0,0.01,0.02,455,2019-04-03 15:51:31:158
0.72,0.32,10.13,0.62,0.15,0.04,0.0,0.01,0.02,460,2019-04-03 15:51:31:163
0.72,0.32,10.13,0.62,0.15,0.04,0.0,0.01,0.02,465,2019-04-03 15:51:31:168
0.63,0.99,9.91,0.41,0.68,-0.03,0.0,-0.01,0.04,471,2019-04-03 15:51:31:174
0.63,0.99,9.91,0.41,0.68,-0.03,0.0,-0.01,0.04,475,2019-04-03 15:51:31:178
0.63,0.99,9.91,0.41,0.68,-0.03,0.0,-0.01,0.04,480,2019-04-03 15:51:31:183
0.63,0.99,9.91,0.41,0.68,-0.03,0.0,-0.01,0.04,485,2019-04-03 15:51:31:188
0.63,0.99,9.91,0.41,0.68,-0.03,0.0,-0.01,0.04,490,2019-04-03 15:51:31:193
0.51,0.87,9.53,0.41,0.68,-0.03,-0.01,-0.02,0.1,495,2019-04-03 15:51:31:198
0.51,0.87,9.53,0.13,0.46,-0.47,-0.01,-0.02,0.1,500,2019-04-03 15:51:31:203
0.51,0.87,9.53,0.13,0.46,-0.47,-0.01,-0.02,0.1,507,2019-04-03 15:51:31:210
0.51,0.87,9.53,0.13,0.46,-0.47,-0.01,-0.02,0.1,510,2019-04-03 15:51:31:213
0.51,0.87,9.53,0.13,0.46,-0.47,-0.01,-0.02,0.1,515,2019-04-03 15:51:31:218
-0.54,0.11,10.07,-0.87,-0.29,0.08,0.0,0.01,0.13,520,2019-04-03 15:51:31:223
-0.54,0.11,10.07,-0.87,-0.29,0.08,0.0,0.01,0.13,526,2019-04-03 15:51:31:229
-0.54,0.11,10.07,-0.87,-0.29,0.08,0.0,0.01,0.13,530,2019-04-03 15:51:31:233
0.07,0.12,10.09,-0.16,-0.28,0.14,0.0,-0.01,0.09,535,2019-04-03 15:51:31:238
0.07,0.12,10.09,-0.16,-0.28,0.14,0.0,-0.01,0.09,539,2019-04-03 15:51:31:242
0.07,0.12,10.09,-0.16,-0.28,0.14,0.0,-0.01,0.09,545,2019-04-03 15:51:31:248
0.07,0.12,10.09,-0.16,-0.28,0.14,0.0,-0.01,0.09,550,2019-04-03 15:51:31:253
-0.14,0.33,10.08,-0.32,-0.07,0.17,0.02,0.0,0.07,555,2019-04-03 15:51:31:258
-0.14,0.33,10.08,-0.32,-0.07,0.17,0.02,0.0,0.07,560,2019-04-03 15:51:31:263
-0.14,0.33,10.08,-0.32,-0.07,0.17,0.02,0.0,0.07,565,2019-04-03 15:51:31:268
-0.14,0.33,10.08,-0.32,-0.07,0.17,0.02,0.0,0.07,570,2019-04-03 15:51:31:273
-1.64,0.87,11.71,-1.64,0.45,1.56,0.0,0.09,0.06,575,2019-04-03 15:51:31:278
-1.64,0.87,11.71,-1.64,0.45,1.56,0.0,0.09,0.06,580,2019-04-03 15:51:31:283
-1.64,0.87,11.71,-1.64,0.45,1.56,0.0,0.09,0.06,585,2019-04-03 15:51:31:288
-1.64,0.87,11.71,-1.64,0.45,1.56,0.0,0.09,0.06,590,2019-04-03 15:51:31:293
-1.64,0.87,11.71,-1.64,0.45,1.56,0.0,0.09,0.06,595,2019-04-03 15:51:31:298
-1.64,0.87,11.71,-1.64,0.45,1.56,0.0,0.09,0.06,600,2019-04-03 15:51:31:303
-0.94,0.89,10.31,-0.86,0.38,0.05,0.0,0.05,0.03,605,2019-04-03 15:51:31:308
-0.94,0.89,10.31,-0.86,0.38,0.05,0.0,0.05,0.03,610,2019-04-03 15:51:31:313
-0.94,0.89,10.31,-0.86,0.38,0.05,0.03,-0.01,0.02,615,2019-04-03 15:51:31:318
-0.21,0.65,9.61,0.44,0.28,-0.07,0.03,-0.01,0.02,620,2019-04-03 15:51:31:323
-0.21,0.65,9.61,0.44,0.28,-0.07,0.03,-0.01,0.02,625,2019-04-03 15:51:31:328
-0.21,0.65,9.61,0.44,0.28,-0.07,0.03,-0.01,0.02,629,2019-04-03 15:51:31:332
-0.21,0.65,9.61,0.44,0.28,-0.07,0.03,-0.01,0.02,635,2019-04-03 15:51:31:338
-0.21,0.65,9.61,0.44,0.28,-0.07,0.03,-0.01,0.02,640,2019-04-03 15:51:31:343
0.3,0.64,9.89,0.48,0.06,-0.38,0.0,0.02,0.04,645,2019-04-03 15:51:31:348
0.3,0.64,9.89,0.48,0.06,-0.38,0.0,0.02,0.04,649,2019-04-03 15:51:31:352
0.16,1.27,9.88,0.48,0.06,-0.38,0.0,0.03,0.07,655,2019-04-03 15:51:31:358
0.16,1.27,9.88,0.48,0.06,-0.38,0.0,0.03,0.07,660,2019-04-03 15:51:31:363
0.16,1.27,9.88,0.48,0.06,-0.38,0.0,0.03,0.07,665,2019-04-03 15:51:31:368
0.16,1.27,9.88,0.48,0.06,-0.38,0.0,0.03,0.07,670,2019-04-03 15:51:31:373
0.16,1.27,9.88,0.48,0.06,-0.38,0.0,0.03,0.07,676,2019-04-03 15:51:31:379
0.16,1.27,9.88,0.48,0.06,-0.38,0.0,0.03,0.07,680,2019-04-03 15:51:31:383
-0.1,1.25,9.68,0.14,0.57,-0.53,0.02,0.02,0.11,685,2019-04-03 15:51:31:388
-0.1,1.25,9.68,0.14,0.57,-0.53,0.02,0.02,0.11,690,2019-04-03 15:51:31:393
-0.1,1.25,9.68,0.14,0.57,-0.53,0.02,0.02,0.11,695,2019-04-03 15:51:31:398
-0.1,1.25,9.68,0.14,0.57,-0.53,0.02,0.02,0.11,700,2019-04-03 15:51:31:403
-0.1,1.25,9.68,0.14,0.57,-0.53,0.02,0.02,0.11,706,2019-04-03 15:51:31:409
-0.1,1.25,9.68,0.14,0.57,-0.53,0.02,0.02,0.11,709,2019-04-03 15:51:31:412
0.81,1.53,9.57,1.06,0.65,-0.55,0.02,-0.02,0.16,715,2019-04-03 15:51:31:418
0.81,1.53,9.57,1.06,0.65,-0.55,0.02,-0.02,0.16,720,2019-04-03 15:51:31:423
0.81,1.53,9.57,1.06,0.65,-0.55,0.02,-0.02,0.16,725,2019-04-03 15:51:31:428
0.81,1.53,9.57,1.06,0.65,-0.55,0.02,-0.02,0.16,729,2019-04-03 15:51:31:432
0.81,1.53,9.57,1.06,0.65,-0.55,0.02,-0.02,0.16,735,2019-04-03 15:51:31:438
0.81,1.53,9.57,1.06,0.65,-0.55,0.02,-0.02,0.16,740,2019-04-03 15:51:31:443
1.47,1.08,10.0,1.53,0.11,-0.12,0.01,0.0,0.23,745,2019-04-03 15:51:31:448
1.47,1.08,10.0,1.53,0.11,-0.12,0.01,0.0,0.23,751,2019-04-03 15:51:31:454
-0.35,0.68,10.77,-0.4,-0.33,0.58,0.02,0.03,0.29,756,2019-04-03 15:51:31:459
-0.35,0.68,10.77,-0.4,-0.33,0.58,0.02,0.03,0.29,760,2019-04-03 15:51:31:463
-0.35,0.68,10.77,-0.4,-0.33,0.58,0.02,0.03,0.29,765,2019-04-03 15:51:31:468
-0.35,0.68,10.77,-0.4,-0.33,0.58,0.02,0.03,0.29,770,2019-04-03 15:51:31:473
0.01,1.52,11.48,-0.15,0.32,1.31,0.03,0.02,0.33,776,2019-04-03 15:51:31:479
0.01,1.52,11.48,-0.15,0.32,1.31,0.03,0.02,0.33,780,2019-04-03 15:51:31:483
0.01,1.52,11.48,-0.15,0.32,1.31,0.03,0.02,0.33,785,2019-04-03 15:51:31:488
0.01,1.52,11.48,-0.15,0.32,1.31,0.03,0.02,0.33,791,2019-04-03 15:51:31:494
-0.47,2.38,9.03,-0.62,1.08,-0.99,0.09,0.08,0.38,794,2019-04-03 15:51:31:497
-0.47,2.38,9.03,-0.62,1.08,-0.99,0.09,0.08,0.38,800,2019-04-03 15:51:31:503
-0.47,2.38,9.03,-0.62,1.08,-0.99,0.09,0.08,0.38,805,2019-04-03 15:51:31:508
-0.47,2.38,9.03,-0.62,1.08,-0.99,0.09,0.08,0.38,810,2019-04-03 15:51:31:513
-0.47,2.38,9.03,-0.62,1.08,-0.99,0.09,0.08,0.38,815,2019-04-03 15:51:31:518
-1.2,1.27,9.46,-1.27,-0.06,-0.48,0.0,0.1,0.41,820,2019-04-03 15:51:31:523
-1.2,1.27,9.46,-1.27,-0.06,-0.48,0.0,0.1,0.41,825,2019-04-03 15:51:31:528
-1.2,1.27,9.46,-1.27,-0.06,-0.48,0.0,0.1,0.41,830,2019-04-03 15:51:31:533
-0.21,2.74,11.0,-0.15,1.16,1.02,0.03,0.0,0.39,836,2019-04-03 15:51:31:539
-0.21,2.74,11.0,-0.15,1.16,1.02,0.03,0.0,0.39,840,2019-04-03 15:51:31:543
-0.21,2.74,11.0,-0.15,1.16,1.02,0.03,0.0,0.39,845,2019-04-03 15:51:31:548
-0.21,2.74,11.0,-0.15,1.16,1.02,0.03,0.0,0.39,850,2019-04-03 15:51:31:553
-0.21,2.74,11.0,-0.15,1.16,1.02,0.03,0.0,0.39,855,2019-04-03 15:51:31:558
-0.21,2.74,11.0,-0.15,1.16,1.02,0.03,0.0,0.39,860,2019-04-03 15:51:31:563
-0.9,4.46,9.38,-0.15,1.16,1.02,0.13,0.05,0.43,865,2019-04-03 15:51:31:568
-0.9,4.46,9.38,-0.73,2.66,-0.6,0.13,0.05,0.43,871,2019-04-03 15:51:31:574
-0.88,1.64,9.1,-0.73,2.66,-0.6,0.01,-0.11,0.46,875,2019-04-03 15:51:31:578
-0.88,1.64,9.1,-0.73,2.66,-0.6,0.01,-0.11,0.46,880,2019-04-03 15:51:31:583
-0.88,1.64,9.1,-0.73,2.66,-0.6,0.01,-0.11,0.46,885,2019-04-03 15:51:31:588
-0.88,1.64,9.1,-0.73,2.66,-0.6,0.01,-0.11,0.46,891,2019-04-03 15:51:31:594
-0.75,1.14,10.81,-0.68,-0.61,0.82,0.09,-0.05,0.56,895,2019-04-03 15:51:31:598
-0.75,1.14,10.81,-0.68,-0.61,0.82,0.09,-0.05,0.56,900,2019-04-03 15:51:31:603
-0.75,1.14,10.81,-0.68,-0.61,0.82,0.09,-0.05,0.56,906,2019-04-03 15:51:31:609
-0.75,1.14,10.81,-0.68,-0.61,0.82,0.09,-0.05,0.56,910,2019-04-03 15:51:31:613
-1.57,3.56,7.64,-0.68,-0.61,0.82,0.19,0.03,0.65,915,2019-04-03 15:51:31:618
-1.57,3.56,7.64,-1.53,1.66,-2.33,0.19,0.03,0.65,920,2019-04-03 15:51:31:623
-1.57,3.56,7.64,-1.53,1.66,-2.33,0.19,0.03,0.65,926,2019-04-03 15:51:31:629
-1.57,3.56,7.64,-1.53,1.66,-2.33,0.19,0.03,0.65,930,2019-04-03 15:51:31:633
-1.57,3.56,7.64,-1.53,1.66,-2.33,0.19,0.03,0.65,935,2019-04-03 15:51:31:638
-0.01,-1.59,10.84,0.1,-3.3,0.84,-0.02,-0.14,0.67,940,2019-04-03 15:51:31:643
-0.01,-1.59,10.84,0.1,-3.3,0.84,-0.02,-0.14,0.67,945,2019-04-03 15:51:31:648
-0.01,-1.59,10.84,0.1,-3.3,0.84,-0.02,-0.14,0.67,950,2019-04-03 15:51:31:653
2.65,0.27,9.98,2.7,-1.43,0.17,0.06,-0.13,0.72,955,2019-04-03 15:51:31:658
2.65,0.27,9.98,2.7,-1.43,0.17,0.06,-0.13,0.72,960,2019-04-03 15:51:31:663
2.65,0.27,9.98,2.7,-1.43,0.17,0.06,-0.13,0.72,965,2019-04-03 15:51:31:668
2.65,0.27,9.98,2.7,-1.43,0.17,0.06,-0.13,0.72,970,2019-04-03 15:51:31:673
0.25,-0.06,10.36,0.25,-1.56,0.73,0.12,0.04,0.76,975,2019-04-03 15:51:31:678
0.25,-0.06,10.36,0.25,-1.56,0.73,0.12,0.04,0.76,980,2019-04-03 15:51:31:683
0.25,-0.06,10.36,0.25,-1.56,0.73,0.12,0.04,0.76,984,2019-04-03 15:51:31:687
0.25,-0.06,10.36,0.25,-1.56,0.73,0.12,0.04,0.76,990,2019-04-03 15:51:31:693
0.79,0.51,12.54,0.59,-0.79,2.68,0.0,0.05,0.66,995,2019-04-03 15:51:31:698
0.79,0.51,12.54,0.59,-0.79,2.68,0.0,0.05,0.66,1000,2019-04-03 15:51:31:703
0.79,0.51,12.54,0.59,-0.79,2.68,0.0,0.05,0.66,1006,2019-04-03 15:51:31:709
0.79,0.51,12.54,0.59,-0.79,2.68,0.0,0.05,0.66,1010,2019-04-03 15:51:31:713
0.79,0.51,12.54,0.59,-0.79,2.68,0.0,0.05,0.66,1015,2019-04-03 15:51:31:718
0.37,-2.37,8.94,0.19,-3.42,-0.93,-0.05,0.0,0.47,1020,2019-04-03 15:51:31:723
0.37,-2.37,8.94,0.19,-3.42,-0.93,-0.05,0.0,0.47,1025,2019-04-03 15:51:31:728
0.37,-2.37,8.94,0.19,-3.42,-0.93,-0.05,0.0,0.47,1030,2019-04-03 15:51:31:733
0.37,-2.37,8.94,0.19,-3.42,-0.93,-0.05,0.0,0.47,1035,2019-04-03 15:51:31:738
-2.61,-1.26,4.74,-2.78,-1.89,-4.84,0.05,0.16,0.34,1040,2019-04-03 15:51:31:743
-2.61,-1.26,4.74,-2.78,-1.89,-4.84,0.05,0.16,0.34,1045,2019-04-03 15:51:31:748
-2.61,-1.26,4.74,-2.78,-1.89,-4.84,0.05,0.16,0.34,1050,2019-04-03 15:51:31:753
-2.76,-2.08,10.04,-2.73,-2.07,0.35,-0.07,0.14,0.21,1055,2019-04-03 15:51:31:758
-2.76,-2.08,10.04,-2.73,-2.07,0.35,-0.07,0.14,0.21,1060,2019-04-03 15:51:31:763
-2.76,-2.08,10.04,-2.73,-2.07,0.35,-0.07,0.14,0.21,1065,2019-04-03 15:51:31:768
-2.76,-2.08,10.04,-2.73,-2.07,0.35,-0.07,0.14,0.21,1069,2019-04-03 15:51:31:772
-1.92,-0.82,11.35,-1.59,-0.71,1.52,-0.06,0.07,0.03,1075,2019-04-03 15:51:31:778
-1.92,-0.82,11.35,-1.59,-0.71,1.52,-0.06,0.07,0.03,1080,2019-04-03 15:51:31:783
-1.92,-0.82,11.35,-1.59,-0.71,1.52,-0.06,0.07,0.03,1086,2019-04-03 15:51:31:789
-1.92,-0.82,11.35,-1.59,-0.71,1.52,-0.06,0.07,0.03,1090,2019-04-03 15:51:31:793
-0.87,-1.49,9.4,-0.53,-1.0,-0.35,-0.01,-0.02,-0.19,1094,2019-04-03 15:51:31:797
-0.87,-1.49,9.4,-0.53,-1.0,-0.35,-0.01,-0.02,-0.19,1100,2019-04-03 15:51:31:803
-0.87,-1.49,9.4,-0.53,-1.0,-0.35,-0.01,-0.02,-0.19,1105,2019-04-03 15:51:31:808
-0.87,-1.49,9.4,-0.53,-1.0,-0.35,-0.01,-0.02,-0.19,1110,2019-04-03 15:51:31:813
2.23,-2.49,8.46,-0.53,-1.0,-0.35,-0.01,-0.02,-0.19,1115,2019-04-03 15:51:31:818
2.23,-2.49,8.46,2.57,-1.51,-1.26,-0.08,-0.01,-0.3,1120,2019-04-03 15:51:31:823
2.23,-2.49,8.46,2.57,-1.51,-1.26,-0.08,-0.01,-0.3,1126,2019-04-03 15:51:31:829
2.23,-2.49,8.46,2.57,-1.51,-1.26,-0.08,-0.01,-0.3,1130,2019-04-03 15:51:31:833
-0.16,1.19,9.03,0.33,2.08,-0.62,0.02,0.16,-0.35,1135,2019-04-03 15:51:31:838
-0.16,1.19,9.03,0.33,2.08,-0.62,0.02,0.16,-0.35,1140,2019-04-03 15:51:31:843
-0.16,1.19,9.03,0.33,2.08,-0.62,0.02,0.16,-0.35,1145,2019-04-03 15:51:31:848
-0.16,1.19,9.03,0.33,2.08,-0.62,0.02,0.16,-0.35,1150,2019-04-03 15:51:31:853
-0.94,3.07,5.35,-0.37,3.81,-4.22,0.03,0.18,-0.38,1155,2019-04-03 15:51:31:858
-0.94,3.07,5.35,-0.37,3.81,-4.22,0.03,0.18,-0.38,1160,2019-04-03 15:51:31:863
-0.94,3.07,5.35,-0.37,3.81,-4.22,0.03,0.18,-0.38,1165,2019-04-03 15:51:31:868
-0.94,3.07,5.35,-0.37,3.81,-4.22,0.03,0.18,-0.38,1170,2019-04-03 15:51:31:873
-0.94,3.07,5.35,-0.37,3.81,-4.22,0.03,0.18,-0.38,1176,2019-04-03 15:51:31:879
-0.94,3.07,5.35,-0.37,3.81,-4.22,0.03,0.18,-0.38,1180,2019-04-03 15:51:31:883
-0.13,4.11,8.96,0.5,4.56,-0.91,-0.07,0.14,-0.34,1185,2019-04-03 15:51:31:888
-0.13,4.11,8.96,0.5,4.56,-0.91,-0.07,0.14,-0.34,1190,2019-04-03 15:51:31:893
6.67,1.05,11.05,0.5,4.56,-0.91,-0.04,0.3,-0.18,1195,2019-04-03 15:51:31:898
6.67,1.05,11.05,0.5,4.56,-0.91,-0.04,0.3,-0.18,1200,2019-04-03 15:51:31:903
6.67,1.05,11.05,0.5,4.56,-0.91,-0.04,0.3,-0.18,1205,2019-04-03 15:51:31:908
6.67,1.05,11.05,0.5,4.56,-0.91,-0.04,0.3,-0.18,1210,2019-04-03 15:51:31:913
6.67,1.05,11.05,0.5,4.56,-0.91,-0.04,0.3,-0.18,1215,2019-04-03 15:51:31:918
1.28,3.43,8.58,1.51,3.11,-1.09,0.11,0.04,-0.05,1220,2019-04-03 15:51:31:923
1.28,3.43,8.58,1.51,3.11,-1.09,0.11,0.04,-0.05,1226,2019-04-03 15:51:31:929
1.28,3.43,8.58,1.51,3.11,-1.09,0.11,0.04,-0.05,1230,2019-04-03 15:51:31:933
1.28,3.43,8.58,1.51,3.11,-1.09,0.11,0.04,-0.05,1235,2019-04-03 15:51:31:938
1.28,3.43,8.58,1.51,3.11,-1.09,0.11,0.04,-0.05,1240,2019-04-03 15:51:31:943
6.31,1.71,13.45,6.05,1.06,3.37,-0.04,-0.26,0.08,1245,2019-04-03 15:51:31:948
6.31,1.71,13.45,6.05,1.06,3.37,-0.04,-0.26,0.08,1250,2019-04-03 15:51:31:953
1.32,1.24,10.47,6.05,1.06,3.37,-0.03,0.08,0.32,1255,2019-04-03 15:51:31:958
1.32,1.24,10.47,6.05,1.06,3.37,-0.03,0.08,0.32,1260,2019-04-03 15:51:31:963
1.32,1.24,10.47,6.05,1.06,3.37,-0.03,0.08,0.32,1265,2019-04-03 15:51:31:968
1.32,1.24,10.47,6.05,1.06,3.37,-0.03,0.08,0.32,1270,2019-04-03 15:51:31:973
-2.88,0.88,7.04,-3.36,-0.36,-2.75,0.0,0.23,0.46,1274,2019-04-03 15:51:31:977
-2.88,0.88,7.04,-3.36,-0.36,-2.75,0.0,0.23,0.46,1280,2019-04-03 15:51:31:983
-2.88,0.88,7.04,-3.36,-0.36,-2.75,0.0,0.23,0.46,1285,2019-04-03 15:51:31:988
-2.88,0.88,7.04,-3.36,-0.36,-2.75,0.0,0.23,0.46,1290,2019-04-03 15:51:31:993
1.34,-2.32,9.17,0.63,-3.64,-0.69,-0.17,-0.04,0.46,1295,2019-04-03 15:51:31:998
1.34,-2.32,9.17,0.63,-3.64,-0.69,-0.17,-0.04,0.46,1300,2019-04-03 15:51:32:003
1.34,-2.32,9.17,0.63,-3.64,-0.69,-0.17,-0.04,0.46,1305,2019-04-03 15:51:32:008
1.34,-2.32,9.17,0.63,-3.64,-0.69,-0.17,-0.04,0.46,1311,2019-04-03 15:51:32:014
1.34,-2.32,9.17,0.63,-3.64,-0.69,-0.17,-0.04,0.46,1315,2019-04-03 15:51:32:018
-0.98,0.18,11.2,-1.59,-1.38,1.28,0.17,0.03,0.41,1320,2019-04-03 15:51:32:023
-0.98,0.18,11.2,-1.59,-1.38,1.28,0.17,0.03,0.41,1325,2019-04-03 15:51:32:028
-0.98,0.18,11.2,-1.59,-1.38,1.28,0.17,0.03,0.41,1330,2019-04-03 15:51:32:033
-0.72,-1.19,8.99,-1.29,-2.57,-0.99,-0.02,-0.01,0.31,1335,2019-04-03 15:51:32:038
-0.72,-1.19,8.99,-1.29,-2.57,-0.99,-0.02,-0.01,0.31,1341,2019-04-03 15:51:32:044
-0.72,-1.19,8.99,-1.29,-2.57,-0.99,-0.02,-0.01,0.31,1346,2019-04-03 15:51:32:049
-0.72,-1.19,8.99,-1.29,-2.57,-0.99,-0.02,-0.01,0.31,1350,2019-04-03 15:51:32:053
-4.53,-2.06,8.75,-4.87,-3.14,-1.35,-0.09,0.14,0.24,1355,2019-04-03 15:51:32:058
-4.53,-2.06,8.75,-4.87,-3.14,-1.35,-0.09,0.14,0.24,1360,2019-04-03 15:51:32:063
-4.53,-2.06,8.75,-4.87,-3.14,-1.35,-0.09,0.14,0.24,1365,2019-04-03 15:51:32:068
-4.53,-2.06,8.75,-4.87,-3.14,-1.35,-0.09,0.14,0.24,1370,2019-04-03 15:51:32:073
-0.4,1.92,8.92,-0.93,0.99,-0.8,0.18,-0.07,0.15,1374,2019-04-03 15:51:32:077
-0.4,1.92,8.92,-0.93,0.99,-0.8,0.18,-0.07,0.15,1380,2019-04-03 15:51:32:083
-0.4,1.92,8.92,-0.93,0.99,-0.8,0.18,-0.07,0.15,1385,2019-04-03 15:51:32:088
-0.4,1.92,8.92,-0.93,0.99,-0.8,0.18,-0.07,0.15,1390,2019-04-03 15:51:32:093
-0.4,1.92,8.92,-0.93,0.99,-0.8,0.18,-0.07,0.15,1395,2019-04-03 15:51:32:098
-0.4,1.92,8.92,-0.93,0.99,-0.8,0.18,-0.07,0.15,1400,2019-04-03 15:51:32:103
-0.49,-1.25,11.57,-0.93,0.99,-0.8,-0.01,-0.14,0.11,1405,2019-04-03 15:51:32:108
-0.49,-1.25,11.57,-0.65,-1.67,1.72,-0.01,-0.14,0.11,1410,2019-04-03 15:51:32:113
-0.49,-1.25,11.57,-0.65,-1.67,1.72,-0.01,-0.14,0.11,1416,2019-04-03 15:51:32:119
-0.49,-1.25,11.57,-0.65,-1.67,1.72,-0.01,-0.14,0.11,1420,2019-04-03 15:51:32:123
-3.83,-0.39,11.23,-3.43,-0.68,1.31,-0.03,0.08,0.08,1425,2019-04-03 15:51:32:128
-3.83,-0.39,11.23,-3.43,-0.68,1.31,-0.03,0.08,0.08,1431,2019-04-03 15:51:32:134
-3.83,-0.39,11.23,-3.43,-0.68,1.31,-0.03,0.08,0.08,1435,2019-04-03 15:51:32:138
-3.83,-0.39,11.23,-3.43,-0.68,1.31,-0.03,0.08,0.08,1440,2019-04-03 15:51:32:143
-0.66,-1.51,11.02,0.19,-1.4,1.05,0.09,-0.15,-0.06,1445,2019-04-03 15:51:32:148
-0.66,-1.51,11.02,0.19,-1.4,1.05,0.09,-0.15,-0.06,1450,2019-04-03 15:51:32:153
-0.66,-1.51,11.02,0.19,-1.4,1.05,0.09,-0.15,-0.06,1456,2019-04-03 15:51:32:159
-0.66,-1.51,11.02,0.19,-1.4,1.05,0.09,-0.15,-0.06,1460,2019-04-03 15:51:32:163
-0.66,-1.51,11.02,0.19,-1.4,1.05,0.09,-0.15,-0.06,1465,2019-04-03 15:51:32:168
-0.66,-1.51,11.02,0.19,-1.4,1.05,0.09,-0.15,-0.06,1470,2019-04-03 15:51:32:173
0.18,-1.38,13.55,1.08,-0.92,3.25,-0.01,-0.11,-0.07,1479,2019-04-03 15:51:32:182
0.18,-1.38,13.55,1.08,-0.92,3.25,-0.01,-0.11,-0.07,1483,2019-04-03 15:51:32:186
0.18,-1.38,13.55,1.08,-0.92,3.25,-0.01,-0.11,-0.07,1488,2019-04-03 15:51:32:191
1.66,2.42,3.48,1.08,-0.92,3.25,0.32,-0.29,0.01,1493,2019-04-03 15:51:32:196
1.66,2.42,3.48,2.39,3.27,-5.55,0.32,-0.29,0.01,1495,2019-04-03 15:51:32:198
1.66,2.42,3.48,2.39,3.27,-5.55,0.32,-0.29,0.01,1499,2019-04-03 15:51:32:202
1.66,2.42,3.48,2.39,3.27,-5.55,0.32,-0.29,0.01,1505,2019-04-03 15:51:32:208
1.66,2.42,3.48,2.39,3.27,-5.55,0.32,-0.29,0.01,1510,2019-04-03 15:51:32:213
6.02,3.47,16.76,6.63,4.05,7.46,0.09,-0.44,0.06,1515,2019-04-03 15:51:32:218
6.02,3.47,16.76,6.63,4.05,7.46,0.09,-0.44,0.06,1520,2019-04-03 15:51:32:223
6.02,3.47,16.76,6.63,4.05,7.46,0.09,-0.44,0.06,1526,2019-04-03 15:51:32:229
6.02,3.47,16.76,6.63,4.05,7.46,0.09,-0.44,0.06,1533,2019-04-03 15:51:32:236
-3.32,0.26,14.77,-2.57,0.48,4.98,-0.09,0.22,0.29,1535,2019-04-03 15:51:32:238
-3.32,0.26,14.77,-2.57,0.48,4.98,-0.09,0.22,0.29,1542,2019-04-03 15:51:32:245
-3.32,0.26,14.77,-2.57,0.48,4.98,-0.09,0.22,0.29,1548,2019-04-03 15:51:32:251
-3.32,0.26,14.77,-2.57,0.48,4.98,-0.09,0.22,0.29,1550,2019-04-03 15:51:32:253
-0.91,0.13,8.42,-0.6,0.08,-1.37,0.18,0.0,0.24,1555,2019-04-03 15:51:32:258
-0.91,0.13,8.42,-0.6,0.08,-1.37,0.18,0.0,0.24,1560,2019-04-03 15:51:32:263
-0.91,0.13,8.42,-0.6,0.08,-1.37,0.18,0.0,0.24,1565,2019-04-03 15:51:32:268
-0.91,0.13,8.42,-0.6,0.08,-1.37,0.18,0.0,0.24,1571,2019-04-03 15:51:32:274
-0.91,0.13,8.42,-0.6,0.08,-1.37,0.18,0.0,0.24,1575,2019-04-03 15:51:32:278
-0.91,0.13,8.42,-0.6,0.08,-1.37,0.18,0.0,0.24,1580,2019-04-03 15:51:32:283
-0.91,0.13,8.42,-0.6,0.08,-1.37,0.18,0.0,0.24,1585,2019-04-03 15:51:32:288
-0.84,0.66,7.59,-0.33,0.69,-2.26,0.25,-0.09,0.29,1590,2019-04-03 15:51:32:293
-0.84,0.66,7.59,-0.33,0.69,-2.26,0.25,-0.09,0.29,1595,2019-04-03 15:51:32:298
-0.84,0.66,7.59,-0.33,0.69,-2.26,0.25,-0.09,0.29,1600,2019-04-03 15:51:32:303
0.75,-1.27,9.61,0.93,-1.24,0.03,-0.11,-0.04,0.36,1606,2019-04-03 15:51:32:309
0.75,-1.27,9.61,0.93,-1.24,0.03,-0.11,-0.04,0.36,1610,2019-04-03 15:51:32:313
0.75,-1.27,9.61,0.93,-1.24,0.03,0.02,-0.06,0.41,1614,2019-04-03 15:51:32:317
0.75,-1.27,9.61,0.2,1.15,1.51,0.02,-0.06,0.41,1620,2019-04-03 15:51:32:323
0.75,-1.27,9.61,0.2,1.15,1.51,0.02,-0.06,0.41,1625,2019-04-03 15:51:32:328
0.75,-1.27,9.61,0.2,1.15,1.51,0.02,-0.06,0.41,1631,2019-04-03 15:51:32:334
1.31,3.97,8.14,1.07,3.39,-1.05,0.01,0.03,0.47,1636,2019-04-03 15:51:32:339
1.31,3.97,8.14,1.07,3.39,-1.05,0.01,0.03,0.47,1641,2019-04-03 15:51:32:344
1.31,3.97,8.14,1.07,3.39,-1.05,0.01,0.03,0.47,1645,2019-04-03 15:51:32:348
1.31,3.97,8.14,1.07,3.39,-1.05,0.01,0.03,0.47,1651,2019-04-03 15:51:32:354
1.31,3.97,8.14,1.07,3.39,-1.05,0.01,0.03,0.47,1655,2019-04-03 15:51:32:358
1.31,3.97,8.14,1.07,3.39,-1.05,0.01,0.03,0.47,1660,2019-04-03 15:51:32:363
0.55,-1.24,8.18,0.11,-1.94,-0.6,-0.11,0.0,0.45,1665,2019-04-03 15:51:32:368
0.55,-1.24,8.18,0.11,-1.94,-0.6,-0.11,0.0,0.45,1670,2019-04-03 15:51:32:373
-0.73,2.5,12.71,0.11,-1.94,-0.6,-0.11,0.0,0.45,1675,2019-04-03 15:51:32:378
-0.73,2.5,12.71,0.11,-1.94,-0.6,-0.11,0.0,0.45,1680,2019-04-03 15:51:32:383
-0.73,2.5,12.71,0.11,-1.94,-0.6,-0.11,0.0,0.45,1686,2019-04-03 15:51:32:389
-0.73,2.5,12.71,0.11,-1.94,-0.6,-0.11,0.0,0.45,1690,2019-04-03 15:51:32:393
-2.73,1.01,14.57,-2.86,-0.69,4.11,0.0,0.06,0.37,1695,2019-04-03 15:51:32:398
-2.73,1.01,14.57,-2.86,-0.69,4.11,0.0,0.06,0.37,1700,2019-04-03 15:51:32:403
-2.73,1.01,14.57,-2.86,-0.69,4.11,0.0,0.06,0.37,1709,2019-04-03 15:51:32:412
-2.73,1.01,14.57,-2.86,-0.69,4.11,0.0,0.06,0.37,1709,2019-04-03 15:51:32:412
-0.42,0.51,11.49,-0.5,-1.02,1.11,-0.03,-0.02,0.29,1715,2019-04-03 15:51:32:418
-0.42,0.51,11.49,-0.5,-1.02,1.11,-0.03,-0.02,0.29,1721,2019-04-03 15:51:32:424
-0.42,0.51,11.49,-0.5,-1.02,1.11,-0.03,-0.02,0.29,1726,2019-04-03 15:51:32:429
-0.42,0.51,11.49,-0.5,-1.02,1.11,-0.03,-0.02,0.29,1730,2019-04-03 15:51:32:433
0.71,0.12,8.13,-0.5,-1.02,1.11,-0.03,-0.02,0.29,1735,2019-04-03 15:51:32:438
0.71,0.12,8.13,0.3,-1.27,-1.55,0.05,-0.05,0.22,1740,2019-04-03 15:51:32:443
0.71,0.12,8.13,0.3,-1.27,-1.55,0.05,-0.05,0.22,1745,2019-04-03 15:51:32:448
0.71,0.12,8.13,0.3,-1.27,-1.55,0.05,-0.05,0.22,1750,2019-04-03 15:51:32:453
0.71,0.12,8.13,0.3,-1.27,-1.55,0.05,-0.05,0.22,1756,2019-04-03 15:51:32:459
0.71,0.12,8.13,0.3,-1.27,-1.55,0.05,-0.05,0.22,1760,2019-04-03 15:51:32:463
1.48,0.15,11.33,1.17,-1.05,1.62,-0.06,-0.02,0.25,1765,2019-04-03 15:51:32:468
1.48,0.15,11.33,1.17,-1.05,1.62,-0.06,-0.02,0.25,1770,2019-04-03 15:51:32:473
2.38,1.04,10.52,1.17,-1.05,1.62,0.0,0.0,0.25,1775,2019-04-03 15:51:32:478
2.38,1.04,10.52,1.17,-1.05,1.62,0.0,0.0,0.25,1781,2019-04-03 15:51:32:484
2.38,1.04,10.52,1.17,-1.05,1.62,0.0,0.0,0.25,1785,2019-04-03 15:51:32:488
2.38,1.04,10.52,1.17,-1.05,1.62,0.0,0.0,0.25,1790,2019-04-03 15:51:32:493
2.38,1.04,10.52,1.17,-1.05,1.62,0.0,0.0,0.25,1795,2019-04-03 15:51:32:498
-1.37,0.51,9.9,1.17,-1.05,1.62,0.0,0.0,0.25,1800,2019-04-03 15:51:32:503
-1.37,0.51,9.9,1.17,-1.05,1.62,0.0,0.0,0.25,1805,2019-04-03 15:51:32:508
-1.37,0.51,9.9,-1.67,-1.07,0.09,-0.02,0.23,0.29,1810,2019-04-03 15:51:32:513
-1.37,0.51,9.9,-1.67,-1.07,0.09,-0.02,0.23,0.29,1815,2019-04-03 15:51:32:518
-1.28,2.46,9.48,-1.67,-1.07,0.09,-0.01,0.1,0.27,1820,2019-04-03 15:51:32:523
-1.28,2.46,9.48,-1.67,-1.07,0.09,-0.01,0.1,0.27,1825,2019-04-03 15:51:32:528
-1.28,2.46,9.48,-1.67,-1.07,0.09,-0.01,0.1,0.27,1830,2019-04-03 15:51:32:533
-1.28,2.46,9.48,-1.67,-1.07,0.09,-0.01,0.1,0.27,1837,2019-04-03 15:51:32:540
-1.28,2.46,9.48,-1.67,-1.07,0.09,-0.01,0.1,0.27,1840,2019-04-03 15:51:32:543
2.93,0.74,13.39,2.78,-0.64,3.29,-0.09,-0.12,0.2,1844,2019-04-03 15:51:32:547
2.93,0.74,13.39,2.78,-0.64,3.29,-0.09,-0.12,0.2,1852,2019-04-03 15:51:32:555
2.93,0.74,13.39,2.78,-0.64,3.29,-0.09,-0.12,0.2,1856,2019-04-03 15:51:32:559
2.93,0.74,13.39,2.78,-0.64,3.29,-0.09,-0.12,0.2,1860,2019-04-03 15:51:32:563
-0.1,5.3,9.28,0.03,3.63,-0.9,-0.05,0.15,0.26,1865,2019-04-03 15:51:32:568
-0.1,5.3,9.28,0.03,3.63,-0.9,-0.05,0.15,0.26,1872,2019-04-03 15:51:32:575
-6.06,5.07,16.17,-5.65,3.28,5.29,-0.16,0.37,0.32,1878,2019-04-03 15:51:32:581
-6.06,5.07,16.17,-5.65,3.28,5.29,-0.16,0.37,0.32,1880,2019-04-03 15:51:32:583
-6.06,5.07,16.17,-5.65,3.28,5.29,-0.16,0.37,0.32,1889,2019-04-03 15:51:32:592
-1.05,2.98,12.6,-0.79,0.93,1.63,0.0,-0.05,0.15,1892,2019-04-03 15:51:32:595
-1.05,2.98,12.6,-0.79,0.93,1.63,0.0,-0.05,0.15,1898,2019-04-03 15:51:32:601
-1.05,2.98,12.6,-0.79,0.93,1.63,0.0,-0.05,0.15,1900,2019-04-03 15:51:32:603
-1.05,2.98,12.6,-0.79,0.93,1.63,0.0,-0.05,0.15,1907,2019-04-03 15:51:32:610
-1.05,2.98,12.6,-0.79,0.93,1.63,0.0,-0.05,0.15,1910,2019-04-03 15:51:32:613
2.53,2.79,9.03,2.75,0.83,-1.72,0.25,-0.1,0.15,1917,2019-04-03 15:51:32:620
2.53,2.79,9.03,2.75,0.83,-1.72,0.25,-0.1,0.15,1920,2019-04-03 15:51:32:623
2.53,2.79,9.03,2.75,0.83,-1.72,0.25,-0.1,0.15,1925,2019-04-03 15:51:32:628
2.53,2.79,9.03,2.75,0.83,-1.72,0.25,-0.1,0.15,1930,2019-04-03 15:51:32:633
2.53,2.79,9.03,2.75,0.83,-1.72,0.25,-0.1,0.15,1937,2019-04-03 15:51:32:640
2.53,2.79,9.03,2.75,0.83,-1.72,0.25,-0.1,0.15,1940,2019-04-03 15:51:32:643
2.28,-2.65,13.92,2.64,-4.46,2.8,-0.22,0.02,0.17,1945,2019-04-03 15:51:32:648
2.28,-2.65,13.92,2.64,-4.46,2.8,-0.22,0.02,0.17,1950,2019-04-03 15:51:32:653
-2.03,0.75,10.39,2.64,-4.46,2.8,0.1,0.27,0.17,1958,2019-04-03 15:51:32:661
-2.03,0.75,10.39,2.64,-4.46,2.8,0.1,0.27,0.17,1960,2019-04-03 15:51:32:663
-2.03,0.75,10.39,2.64,-4.46,2.8,0.1,0.27,0.17,1965,2019-04-03 15:51:32:668
-1.18,-1.23,10.51,-0.57,-2.65,-1.09,-0.03,0.17,0.12,1975,2019-04-03 15:51:32:678
-1.18,-1.23,10.51,-0.57,-2.65,-1.09,-0.03,0.17,0.12,1976,2019-04-03 15:51:32:679
-1.18,-1.23,10.51,-0.57,-2.65,-1.09,-0.03,0.17,0.12,1980,2019-04-03 15:51:32:683
-1.18,-1.23,10.51,-0.57,-2.65,-1.09,-0.03,0.17,0.12,1993,2019-04-03 15:51:32:696
-1.18,-1.23,10.51,-0.57,-2.65,-1.09,-0.03,0.17,0.12,1994,2019-04-03 15:51:32:697
-1.18,-1.23,10.51,-0.57,-2.65,-1.09,-0.03,0.17,0.12,1995,2019-04-03 15:51:32:698
-1.18,-1.81,6.91,-0.57,-2.65,-1.09,-0.03,0.17,0.12,2001,2019-04-03 15:51:32:704
-1.46,-1.81,6.91,-0.73,-3.07,-4.5,-0.17,0.08,0.08,2005,2019-04-03 15:51:32:708
-1.46,-1.81,6.91,-0.73,-3.07,-4.5,-0.17,0.08,0.08,2010,2019-04-03 15:51:32:713
-1.46,-1.81,6.91,-0.73,-3.07,-4.5,-0.17,0.08,0.08,2015,2019-04-03 15:51:32:718
-1.46,-1.81,6.91,-0.73,-3.07,-4.5,-0.17,0.08,0.08,2020,2019-04-03 15:51:32:723
5.98,2.09,9.0,6.58,0.89,-2.21,0.06,-0.29,0.0,2025,2019-04-03 15:51:32:728
5.98,2.09,9.0,6.58,0.89,-2.21,0.06,-0.29,0.0,2030,2019-04-03 15:51:32:733
5.98,2.09,9.0,3.87,2.94,0.23,-0.05,0.22,0.23,2035,2019-04-03 15:51:32:738
5.98,2.09,9.0,3.87,2.94,0.23,-0.05,0.22,0.23,2040,2019-04-03 15:51:32:743
5.98,2.09,9.0,3.87,2.94,0.23,-0.05,0.22,0.23,2046,2019-04-03 15:51:32:749
5.98,2.09,9.0,3.87,2.94,0.23,-0.05,0.22,0.23,2051,2019-04-03 15:51:32:754
2.54,2.19,6.81,2.91,0.96,-4.15,-0.27,-0.04,0.21,2055,2019-04-03 15:51:32:758
2.54,2.19,6.81,2.91,0.96,-4.15,-0.27,-0.04,0.21,2060,2019-04-03 15:51:32:763
2.54,2.19,6.81,2.91,0.96,-4.15,-0.27,-0.04,0.21,2067,2019-04-03 15:51:32:770
2.54,2.19,6.81,2.91,0.96,-4.15,-0.27,-0.04,0.21,2071,2019-04-03 15:51:32:774
2.54,2.19,6.81,2.91,0.96,-4.15,-0.27,-0.04,0.21,2075,2019-04-03 15:51:32:778
2.54,2.19,6.81,2.91,0.96,-4.15,-0.27,-0.04,0.21,2080,2019-04-03 15:51:32:783
-3.77,6.77,7.82,-3.45,5.38,-2.11,0.33,0.08,0.24,2087,2019-04-03 15:51:32:790
-3.77,6.77,7.82,-3.45,5.38,-2.11,0.33,0.08,0.24,2090,2019-04-03 15:51:32:793
-3.77,6.77,7.82,-3.45,5.38,-2.11,0.4,0.37,0.21,2095,2019-04-03 15:51:32:798
-3.77,6.77,7.82,-3.45,5.38,-2.11,0.4,0.37,0.21,2100,2019-04-03 15:51:32:803
-3.77,6.77,7.82,-3.45,5.38,-2.11,0.4,0.37,0.21,2105,2019-04-03 15:51:32:808
-3.77,6.77,7.82,-3.45,5.38,-2.11,0.4,0.37,0.21,2110,2019-04-03 15:51:32:813
-3.77,6.77,7.82,-3.45,5.38,-2.11,0.4,0.37,0.21,2115,2019-04-03 15:51:32:818
-3.77,6.77,7.82,-3.45,5.38,-2.11,0.4,0.37,0.21,2120,2019-04-03 15:51:32:823
1.25,0.13,8.76,1.6,-1.11,-0.82,-0.04,-0.07,0.08,2126,2019-04-03 15:51:32:829
1.25,0.13,8.76,1.6,-1.11,-0.82,-0.04,-0.07,0.08,2130,2019-04-03 15:51:32:833
1.25,0.13,8.76,1.6,-1.11,-0.82,-0.04,-0.07,0.08,2135,2019-04-03 15:51:32:838
1.25,0.13,8.76,1.6,-1.11,-0.82,-0.04,-0.07,0.08,2140,2019-04-03 15:51:32:843
-2.73,5.47,6.55,-2.32,3.92,-2.66,0.29,0.16,0.09,2145,2019-04-03 15:51:32:848
-2.73,5.47,6.55,-2.32,3.92,-2.66,0.29,0.16,0.09,2150,2019-04-03 15:51:32:853
-2.73,5.47,6.55,-2.32,3.92,-2.66,0.29,0.16,0.09,2155,2019-04-03 15:51:32:858
5.15,-2.77,15.88,5.18,-4.17,6.39,-0.12,-0.35,0.05,2160,2019-04-03 15:51:32:863
5.15,-2.77,15.88,5.18,-4.17,6.39,-0.12,-0.35,0.05,2166,2019-04-03 15:51:32:869
5.15,-2.77,15.88,5.18,-4.17,6.39,-0.12,-0.35,0.05,2170,2019-04-03 15:51:32:873
5.15,-2.77,15.88,5.18,-4.17,6.39,-0.12,-0.35,0.05,2175,2019-04-03 15:51:32:878
5.15,-2.77,15.88,5.18,-4.17,6.39,-0.12,-0.35,0.05,2179,2019-04-03 15:51:32:882
5.15,-2.77,15.88,5.18,-4.17,6.39,-0.12,-0.35,0.05,2185,2019-04-03 15:51:32:888
1.92,3.23,3.43,2.28,1.46,-5.14,0.2,-0.05,0.02,2190,2019-04-03 15:51:32:893
1.92,3.23,3.43,2.28,1.46,-5.14,0.2,-0.05,0.02,2195,2019-04-03 15:51:32:898
1.92,3.23,3.43,2.28,1.46,-5.14,0.2,-0.05,0.02,2200,2019-04-03 15:51:32:903
-2.98,-0.5,11.85,-2.8,-2.12,2.82,-0.03,0.27,0.1,2206,2019-04-03 15:51:32:909
-2.98,-0.5,11.85,-2.8,-2.12,2.82,-0.03,0.27,0.1,2210,2019-04-03 15:51:32:913
-2.98,-0.5,11.85,-2.8,-2.12,2.82,-0.03,0.27,0.1,2216,2019-04-03 15:51:32:919
-2.98,-0.5,11.85,-2.8,-2.12,2.82,-0.03,0.27,0.1,2220,2019-04-03 15:51:32:923
1.71,-2.52,5.14,1.84,-4.0,-3.77,0.21,-0.2,0.02,2225,2019-04-03 15:51:32:928
1.71,-2.52,5.14,1.84,-4.0,-3.77,0.21,-0.2,0.02,2230,2019-04-03 15:51:32:933
0.3,-2.83,6.21,0.36,-3.75,-2.48,0.0,-0.11,0.05,2237,2019-04-03 15:51:32:940
0.3,-2.83,6.21,0.36,-3.75,-2.48,0.0,-0.11,0.05,2240,2019-04-03 15:51:32:943
0.3,-2.83,6.21,0.36,-3.75,-2.48,0.0,-0.11,0.05,2245,2019-04-03 15:51:32:948
0.3,-2.83,6.21,0.36,-3.75,-2.48,0.0,-0.11,0.05,2250,2019-04-03 15:51:32:953
2.41,-0.28,9.22,2.62,-0.81,0.64,0.05,-0.16,0.03,2257,2019-04-03 15:51:32:960
2.41,-0.28,9.22,2.62,-0.81,0.64,0.05,-0.16,0.03,2260,2019-04-03 15:51:32:963
2.41,-0.28,9.22,2.62,-0.81,0.64,0.05,-0.16,0.03,2266,2019-04-03 15:51:32:969
2.41,-0.28,9.22,2.62,-0.81,0.64,0.05,-0.16,0.03,2270,2019-04-03 15:51:32:973
2.41,-0.28,9.22,2.62,-0.81,0.64,0.05,-0.16,0.03,2275,2019-04-03 15:51:32:978
2.41,-0.28,9.22,2.62,-0.81,0.64,0.05,-0.16,0.03,2280,2019-04-03 15:51:32:983
-1.18,0.87,8.28,-1.08,0.91,-0.43,0.07,-0.01,0.05,2288,2019-04-03 15:51:32:991
-1.18,0.87,8.28,-1.08,0.91,-0.43,0.07,-0.01,0.05,2291,2019-04-03 15:51:32:994
-1.18,0.87,8.28,-1.08,0.91,-0.43,0.07,-0.01,0.05,2297,2019-04-03 15:51:33:000
-1.18,0.87,8.28,-1.08,0.91,-0.43,0.07,-0.01,0.05,2300,2019-04-03 15:51:33:003
-3.15,-2.77,8.0,-2.9,-2.49,-0.13,-0.03,0.06,0.08,2305,2019-04-03 15:51:33:008
-3.15,-2.77,8.0,-2.9,-2.49,-0.13,-0.03,0.06,0.08,2310,2019-04-03 15:51:33:013
-3.15,-2.77,8.0,-2.9,-2.49,-0.13,-0.01,-0.21,0.02,2316,2019-04-03 15:51:33:019
-4.42,-1.23,9.41,-4.29,-0.47,0.72,-0.01,-0.21,0.02,2320,2019-04-03 15:51:33:023
-4.42,-1.23,9.41,-4.29,-0.47,0.72,-0.01,-0.21,0.02,2325,2019-04-03 15:51:33:028
-4.42,-1.23,9.41,-4.29,-0.47,0.72,-0.01,-0.21,0.02,2331,2019-04-03 15:51:33:034
4.81,-1.04,14.85,4.54,0.03,5.75,0.12,-0.33,-0.04,2338,2019-04-03 15:51:33:041
4.81,-1.04,14.85,4.54,0.03,5.75,0.12,-0.33,-0.04,2340,2019-04-03 15:51:33:043
4.81,-1.04,14.85,4.54,0.03,5.75,0.12,-0.33,-0.04,2349,2019-04-03 15:51:33:052
4.81,-1.04,14.85,4.54,0.03,5.75,0.12,-0.33,-0.04,2349,2019-04-03 15:51:33:052
-4.35,-0.76,10.47,-4.11,0.44,1.6,-0.09,0.3,0.04,2357,2019-04-03 15:51:33:060
-4.35,-0.76,10.47,-4.11,0.44,1.6,-0.09,0.3,0.04,2360,2019-04-03 15:51:33:063
-4.35,-0.76,10.47,-4.11,0.44,1.6,-0.09,0.3,0.04,2365,2019-04-03 15:51:33:068
-4.35,-0.76,10.47,-4.11,0.44,1.6,-0.09,0.3,0.04,2371,2019-04-03 15:51:33:074
-5.13,-3.89,2.97,-5.35,-2.25,-6.33,0.0,0.25,0.01,2375,2019-04-03 15:51:33:078
-5.13,-3.89,2.97,-5.35,-2.25,-6.33,0.0,0.25,0.01,2381,2019-04-03 15:51:33:084
-5.13,-3.89,2.97,-5.35,-2.25,-6.33,0.0,0.25,0.01,2385,2019-04-03 15:51:33:088
-5.13,-3.89,2.97,-5.35,-2.25,-6.33,0.0,0.25,0.01,2390,2019-04-03 15:51:33:093
6.55,-1.65,10.56,6.1,0.09,1.71,-0.11,-0.46,-0.06,2395,2019-04-03 15:51:33:098
6.55,-1.65,10.56,6.1,0.09,1.71,-0.11,-0.46,-0.06,2400,2019-04-03 15:51:33:103
6.55,-1.65,10.56,6.1,0.09,1.71,-0.11,-0.46,-0.06,2406,2019-04-03 15:51:33:109
6.55,-1.65,10.56,6.1,0.09,1.71,-0.11,-0.46,-0.06,2410,2019-04-03 15:51:33:113
3.21,0.71,12.01,3.06,2.21,2.87,-0.01,-0.12,0.0,2417,2019-04-03 15:51:33:120
3.21,0.71,12.01,3.06,2.21,2.87,-0.01,-0.12,0.0,2420,2019-04-03 15:51:33:123
3.21,0.71,12.01,3.06,2.21,2.87,-0.01,-0.12,0.0,2425,2019-04-03 15:51:33:128
3.21,0.71,12.01,3.06,2.21,2.87,-0.01,-0.12,0.0,2432,2019-04-03 15:51:33:135
3.21,0.71,12.01,3.06,2.21,2.87,-0.01,-0.12,0.0,2434,2019-04-03 15:51:33:137
-4.43,2.92,9.4,-4.57,3.94,-0.02,0.09,0.27,0.03,2442,2019-04-03 15:51:33:145
-4.43,2.92,9.4,-4.57,3.94,-0.02,0.09,0.27,0.03,2444,2019-04-03 15:51:33:147
-4.43,2.92,9.4,-4.57,3.94,-0.02,0.09,0.27,0.03,2450,2019-04-03 15:51:33:153
3.06,3.5,8.98,2.81,4.12,-0.68,0.02,-0.17,-0.01,2456,2019-04-03 15:51:33:159
3.06,3.5,8.98,2.81,4.12,-0.68,0.02,-0.17,-0.01,2460,2019-04-03 15:51:33:163
3.06,3.5,8.98,2.81,4.12,-0.68,0.02,-0.17,-0.01,2466,2019-04-03 15:51:33:169
3.06,3.5,8.98,2.81,4.12,-0.68,0.02,-0.17,-0.01,2470,2019-04-03 15:51:33:173
3.06,3.5,8.98,2.81,4.12,-0.68,0.02,-0.17,-0.01,2481,2019-04-03 15:51:33:184
2.44,1.26,15.38,2.35,1.55,5.47,-0.02,-0.12,-0.08,2484,2019-04-03 15:51:33:187
2.44,1.26,15.38,2.35,1.55,5.47,-0.02,-0.12,-0.08,2485,2019-04-03 15:51:33:188
2.44,1.26,15.38,2.35,1.55,5.47,-0.02,-0.12,-0.08,2491,2019-04-03 15:51:33:194
2.44,1.26,15.38,2.35,1.55,5.47,-0.02,-0.12,-0.08,2495,2019-04-03 15:51:33:198
2.44,1.26,15.38,2.35,1.55,5.47,-0.02,-0.12,-0.08,2500,2019-04-03 15:51:33:203
2.44,1.26,15.38,2.35,1.55,5.47,-0.02,-0.12,-0.08,2505,2019-04-03 15:51:33:208
2.44,1.26,15.38,2.35,1.55,5.47,-0.02,-0.12,-0.08,2510,2019-04-03 15:51:33:213
8.99,-1.22,21.2,8.49,-1.72,10.96,-0.17,-0.4,-0.05,2519,2019-04-03 15:51:33:222
8.99,-1.22,21.2,8.49,-1.72,10.96,-0.17,-0.4,-0.05,2519,2019-04-03 15:51:33:222
8.99,-1.22,21.2,8.49,-1.72,10.96,-0.17,-0.4,-0.05,2525,2019-04-03 15:51:33:228
8.99,-1.22,21.2,8.49,-1.72,10.96,-0.17,-0.4,-0.05,2530,2019-04-03 15:51:33:233
1.85,2.25,7.66,1.7,1.34,-2.11,0.06,0.07,0.03,2534,2019-04-03 15:51:33:237
1.85,2.25,7.66,1.7,1.34,-2.11,0.06,0.07,0.03,2541,2019-04-03 15:51:33:244
-9.12,-4.88,4.75,-9.47,-5.33,-4.9,-0.05,0.56,0.12,2546,2019-04-03 15:51:33:249
-9.12,-4.88,4.75,-9.47,-5.33,-4.9,-0.05,0.56,0.12,2551,2019-04-03 15:51:33:254
-9.12,-4.88,4.75,-9.47,-5.33,-4.9,-0.05,0.56,0.12,2555,2019-04-03 15:51:33:258
-9.12,-4.88,4.75,-9.47,-5.33,-4.9,-0.05,0.56,0.12,2560,2019-04-03 15:51:33:263
3.46,1.27,13.71,3.35,0.68,3.96,0.16,-0.22,-0.03,2565,2019-04-03 15:51:33:268
3.46,1.27,13.71,3.35,0.68,3.96,-0.05,-0.34,0.0,2570,2019-04-03 15:51:33:273
3.46,1.27,13.71,3.35,0.68,3.96,-0.05,-0.34,0.0,2575,2019-04-03 15:51:33:278
3.46,1.27,13.71,3.35,0.68,3.96,-0.05,-0.34,0.0,2580,2019-04-03 15:51:33:283
3.46,1.27,13.71,3.35,0.68,3.96,-0.05,-0.34,0.0,2588,2019-04-03 15:51:33:291
3.46,1.27,13.71,3.35,0.68,3.96,-0.05,-0.34,0.0,2590,2019-04-03 15:51:33:293
6.17,0.98,11.41,6.13,-0.52,1.11,-0.02,-0.43,-0.03,2595,2019-04-03 15:51:33:298
6.17,0.98,11.41,6.13,-0.52,1.11,-0.02,-0.43,-0.03,2600,2019-04-03 15:51:33:303
6.17,0.98,11.41,6.13,-0.52,1.11,-0.02,-0.43,-0.03,2606,2019-04-03 15:51:33:309
6.17,0.98,11.41,6.13,-0.52,1.11,-0.02,-0.43,-0.03,2610,2019-04-03 15:51:33:313
2.36,-0.14,15.99,-3.07,0.91,0.94,-0.05,0.26,0.06,2615,2019-04-03 15:51:33:318
2.36,-0.14,15.99,-3.07,0.91,0.94,-0.05,0.26,0.06,2620,2019-04-03 15:51:33:323
2.36,-0.14,15.99,-3.07,0.91,0.94,-0.05,0.26,0.06,2625,2019-04-03 15:51:33:328
-0.52,3.6,11.52,-0.66,2.2,0.72,-0.21,0.14,0.04,2630,2019-04-03 15:51:33:333
-0.52,3.6,11.52,-0.66,2.2,0.72,-0.21,0.14,0.04,2636,2019-04-03 15:51:33:339
-0.52,3.6,11.52,-0.66,2.2,0.72,-0.21,0.14,0.04,2640,2019-04-03 15:51:33:343
2.75,5.75,5.46,2.7,4.17,-5.08,0.1,-0.18,0.0,2653,2019-04-03 15:51:33:356
2.75,5.75,5.46,2.7,4.17,-5.08,0.1,-0.18,0.0,2654,2019-04-03 15:51:33:357
2.75,5.75,5.46,2.7,4.17,-5.08,0.1,-0.18,0.0,2655,2019-04-03 15:51:33:358
2.75,5.75,5.46,2.7,4.17,-5.08,0.1,-0.18,0.0,2660,2019-04-03 15:51:33:363
2.75,5.75,5.46,2.7,4.17,-5.08,0.1,-0.18,0.0,2665,2019-04-03 15:51:33:368
2.75,5.75,5.46,2.7,4.17,-5.08,0.1,-0.18,0.0,2670,2019-04-03 15:51:33:373
3.32,-0.09,6.22,2.99,-1.16,-3.65,0.0,-0.14,0.0,2675,2019-04-03 15:51:33:378
3.32,-0.09,6.22,2.99,-1.16,-3.65,0.0,-0.14,0.0,2681,2019-04-03 15:51:33:384
3.32,-0.09,6.22,2.99,-1.16,-3.65,0.0,-0.14,0.0,2684,2019-04-03 15:51:33:387
8.53,7.54,15.0,8.03,6.21,5.04,-0.15,-0.41,-0.1,2691,2019-04-03 15:51:33:394
8.53,7.54,15.0,8.03,6.21,5.04,-0.15,-0.41,-0.1,2695,2019-04-03 15:51:33:398
8.53,7.54,15.0,8.03,6.21,5.04,-0.15,-0.41,-0.1,2700,2019-04-03 15:51:33:403
8.53,7.54,15.0,8.03,6.21,5.04,-0.15,-0.41,-0.1,2705,2019-04-03 15:51:33:408
0.3,3.92,9.2,0.66,2.14,-0.01,0.13,0.1,-0.05,2710,2019-04-03 15:51:33:413
0.3,3.92,9.2,0.66,2.14,-0.01,0.13,0.1,-0.05,2715,2019-04-03 15:51:33:418
0.3,3.92,9.2,0.66,2.14,-0.01,0.13,0.1,-0.05,2720,2019-04-03 15:51:33:423
0.3,3.92,9.2,0.66,2.14,-0.01,0.13,0.1,-0.05,2725,2019-04-03 15:51:33:428
0.3,3.92,9.2,0.66,2.14,-0.01,0.13,0.1,-0.05,2730,2019-04-03 15:51:33:433
-1.57,0.12,7.66,-1.44,-1.37,-1.62,0.08,0.2,-0.1,2734,2019-04-03 15:51:33:437
-1.57,0.12,7.66,-1.44,-1.37,-1.62,0.08,0.2,-0.1,2744,2019-04-03 15:51:33:447
-1.57,0.12,7.66,-1.44,-1.37,-1.62,0.08,0.2,-0.1,2745,2019-04-03 15:51:33:448
-3.42,-1.26,8.15,-3.41,-3.34,-1.04,-0.19,0.15,-0.17,2754,2019-04-03 15:51:33:457
-3.42,-1.26,8.15,-3.41,-3.34,-1.04,-0.19,0.15,-0.17,2755,2019-04-03 15:51:33:458
-3.42,-1.26,8.15,-3.41,-3.34,-1.04,-0.19,0.15,-0.17,2760,2019-04-03 15:51:33:463
-3.42,-1.26,8.15,-3.41,-3.34,-1.04,-0.19,0.15,-0.17,2766,2019-04-03 15:51:33:469
-0.97,0.69,9.5,-0.7,-1.23,0.47,0.02,-0.01,-0.22,2771,2019-04-03 15:51:33:474
-0.97,0.69,9.5,-0.7,-1.23,0.47,0.02,-0.01,-0.22,2775,2019-04-03 15:51:33:478
-0.97,0.69,9.5,-0.7,-1.23,0.47,0.02,-0.01,-0.22,2780,2019-04-03 15:51:33:483
-3.98,3.07,11.21,-3.64,1.2,1.71,0.1,0.14,-0.21,2786,2019-04-03 15:51:33:489
-3.98,3.07,11.21,-3.64,1.2,1.71,0.1,0.14,-0.21,2790,2019-04-03 15:51:33:493
-3.98,3.07,11.21,-3.64,1.2,1.71,0.1,0.14,-0.21,2795,2019-04-03 15:51:33:498
-3.98,3.07,11.21,-3.64,1.2,1.71,0.1,0.14,-0.21,2800,2019-04-03 15:51:33:503
-3.98,3.07,11.21,-3.64,1.2,1.71,0.1,0.14,-0.21,2805,2019-04-03 15:51:33:508
-3.64,-8.94,9.03,-3.92,-10.21,-0.35,-0.33,0.15,-0.11,2812,2019-04-03 15:51:33:515
-3.64,-8.94,9.03,-3.92,-10.21,-0.35,-0.33,0.15,-0.11,2815,2019-04-03 15:51:33:518
-3.64,-8.94,9.03,-3.92,-10.21,-0.35,-0.33,0.15,-0.11,2820,2019-04-03 15:51:33:523
-3.64,-8.94,9.03,-3.92,-10.21,-0.35,-0.33,0.15,-0.11,2825,2019-04-03 15:51:33:528
11.33,4.76,27.74,10.7,3.04,18.08,0.07,-0.85,-0.3,2831,2019-04-03 15:51:33:534
11.33,4.76,27.74,10.7,3.04,18.08,0.07,-0.85,-0.3,2836,2019-04-03 15:51:33:539
11.33,4.76,27.74,10.7,3.04,18.08,0.07,-0.85,-0.3,2840,2019-04-03 15:51:33:543
1.77,-5.31,3.89,10.7,3.04,18.08,0.07,-0.85,-0.3,2845,2019-04-03 15:51:33:548
1.77,-5.31,3.89,1.56,-5.94,-5.17,0.17,0.14,-0.04,2850,2019-04-03 15:51:33:553
1.77,-5.31,3.89,1.56,-5.94,-5.17,0.17,0.14,-0.04,2855,2019-04-03 15:51:33:558
1.77,-5.31,3.89,1.56,-5.94,-5.17,0.17,0.14,-0.04,2860,2019-04-03 15:51:33:563
1.77,-5.31,3.89,1.56,-5.94,-5.17,0.17,0.14,-0.04,2865,2019-04-03 15:51:33:568
-3.92,2.65,-4.1,-4.32,1.7,-12.66,-0.02,0.6,0.06,2871,2019-04-03 15:51:33:574
-3.92,2.65,-4.1,-4.32,1.7,-12.66,-0.02,0.6,0.06,2875,2019-04-03 15:51:33:578
-3.92,2.65,-4.1,-4.32,1.7,-12.66,-0.02,0.6,0.06,2880,2019-04-03 15:51:33:583
-3.36,2.95,7.06,-4.32,1.7,-12.66,-0.02,0.6,0.06,2885,2019-04-03 15:51:33:588
-3.36,2.95,7.06,-3.71,2.24,-1.75,-0.02,0.07,-0.01,2891,2019-04-03 15:51:33:594
-3.36,2.95,7.06,-3.71,2.24,-1.75,-0.02,0.07,-0.01,2895,2019-04-03 15:51:33:598
-3.36,2.95,7.06,-3.71,2.24,-1.75,-0.02,0.07,-0.01,2900,2019-04-03 15:51:33:603
-3.36,2.95,7.06,-3.71,2.24,-1.75,-0.02,0.07,-0.01,2905,2019-04-03 15:51:33:608
-3.36,2.95,7.06,-3.71,2.24,-1.75,-0.02,0.07,-0.01,2909,2019-04-03 15:51:33:612
-5.35,2.9,15.25,-5.73,2.34,6.1,0.17,-0.12,-0.09,2915,2019-04-03 15:51:33:618
-5.35,2.9,15.25,-5.73,2.34,6.1,0.17,-0.12,-0.09,2920,2019-04-03 15:51:33:623
-0.34,-1.58,6.43,-5.73,2.34,6.1,-0.14,-0.15,-0.12,2925,2019-04-03 15:51:33:628
-0.34,-1.58,6.43,-0.54,-1.96,-3.14,-0.14,-0.15,-0.12,2929,2019-04-03 15:51:33:632
-0.34,-1.58,6.43,-0.54,-1.96,-3.14,-0.14,-0.15,-0.12,2936,2019-04-03 15:51:33:639
-0.34,-1.58,6.43,-0.54,-1.96,-3.14,-0.14,-0.15,-0.12,2940,2019-04-03 15:51:33:643
3.07,-5.85,7.85,2.81,-6.08,-1.75,-0.11,-0.24,-0.23,2948,2019-04-03 15:51:33:651
3.07,-5.85,7.85,2.81,-6.08,-1.75,-0.11,-0.24,-0.23,2950,2019-04-03 15:51:33:653
3.07,-5.85,7.85,2.81,-6.08,-1.75,-0.11,-0.24,-0.23,2956,2019-04-03 15:51:33:659
3.07,-5.85,7.85,2.81,-6.08,-1.75,-0.11,-0.24,-0.23,2961,2019-04-03 15:51:33:664
5.72,0.59,18.93,5.9,0.41,9.18,0.3,0.06,-0.29,2966,2019-04-03 15:51:33:669
5.72,0.59,18.93,5.9,0.41,9.18,0.3,0.06,-0.29,2973,2019-04-03 15:51:33:676
5.72,0.59,18.93,5.9,0.41,9.18,0.3,0.06,-0.29,2975,2019-04-03 15:51:33:678
5.72,0.59,18.93,5.9,0.41,9.18,0.3,0.06,-0.29,2980,2019-04-03 15:51:33:683
-10.98,4.6,6.37,-10.88,4.38,-3.36,0.03,0.68,-0.15,2985,2019-04-03 15:51:33:688
-10.98,4.6,6.37,-10.88,4.38,-3.36,0.03,0.68,-0.15,2992,2019-04-03 15:51:33:695
-10.98,4.6,6.37,-10.88,4.38,-3.36,0.03,0.68,-0.15,2995,2019-04-03 15:51:33:698
-10.98,4.6,6.37,-10.88,4.38,-3.36,0.03,0.68,-0.15,3000,2019-04-03 15:51:33:703
-10.98,4.6,6.37,-10.88,4.38,-3.36,0.03,0.68,-0.15,3005,2019-04-03 15:51:33:708
-10.98,4.6,6.37,-10.88,4.38,-3.36,0.03,0.68,-0.15,3010,2019-04-03 15:51:33:713
-10.98,4.6,6.37,-10.88,4.38,-3.36,0.03,0.68,-0.15,3015,2019-04-03 15:51:33:718
4.26,-3.17,13.75,3.87,-3.96,3.29,-0.26,-0.56,-0.3,3021,2019-04-03 15:51:33:724
4.26,-3.17,13.75,3.87,-3.96,3.29,-0.26,-0.56,-0.3,3027,2019-04-03 15:51:33:730
4.26,-3.17,13.75,3.87,-3.96,3.29,-0.26,-0.56,-0.3,3030,2019-04-03 15:51:33:733
5.69,2.24,4.81,5.81,1.86,-4.36,0.38,-0.02,-0.11,3035,2019-04-03 15:51:33:738
5.69,2.24,4.81,5.81,1.86,-4.36,0.38,-0.02,-0.11,3040,2019-04-03 15:51:33:743
5.69,2.24,4.81,-1.89,7.47,-3.76,-0.2,0.49,0.03,3045,2019-04-03 15:51:33:748
5.69,2.24,4.81,-1.89,7.47,-3.76,-0.2,0.49,0.03,3050,2019-04-03 15:51:33:753
5.69,2.24,4.81,-1.89,7.47,-3.76,-0.2,0.49,0.03,3055,2019-04-03 15:51:33:758
5.69,2.24,4.81,-1.89,7.47,-3.76,-0.2,0.49,0.03,3060,2019-04-03 15:51:33:763
7.81,1.87,18.63,7.74,0.85,7.38,-0.11,-0.43,-0.22,3070,2019-04-03 15:51:33:773
7.81,1.87,18.63,7.74,0.85,7.38,-0.11,-0.43,-0.22,3071,2019-04-03 15:51:33:774
7.81,1.87,18.63,7.74,0.85,7.38,-0.11,-0.43,-0.22,3075,2019-04-03 15:51:33:778
7.81,1.87,18.63,7.74,0.85,7.38,-0.11,-0.43,-0.22,3080,2019-04-03 15:51:33:783
-10.75,3.66,0.54,-10.1,2.88,-9.99,0.42,0.78,0.06,3085,2019-04-03 15:51:33:788
-10.75,3.66,0.54,-10.1,2.88,-9.99,0.42,0.78,0.06,3092,2019-04-03 15:51:33:795
-10.75,3.66,0.54,-10.1,2.88,-9.99,0.42,0.78,0.06,3096,2019-04-03 15:51:33:799
-10.75,3.66,0.54,-10.1,2.88,-9.99,0.42,0.78,0.06,3100,2019-04-03 15:51:33:803
-0.68,-0.35,6.25,-0.92,-0.77,-3.78,-0.23,-0.22,-0.16,3104,2019-04-03 15:51:33:807
-0.68,-0.35,6.25,-0.92,-0.77,-3.78,-0.23,-0.22,-0.16,3110,2019-04-03 15:51:33:813
-0.68,-0.35,6.25,-0.92,-0.77,-3.78,-0.23,-0.22,-0.16,3116,2019-04-03 15:51:33:819
-0.68,-0.35,6.25,-0.92,-0.77,-3.78,-0.23,-0.22,-0.16,3120,2019-04-03 15:51:33:823
0.19,1.62,9.65,-0.12,0.67,-0.15,0.04,-0.16,-0.13,3125,2019-04-03 15:51:33:828
0.19,1.62,9.65,-0.12,0.67,-0.15,0.04,-0.16,-0.13,3130,2019-04-03 15:51:33:833
0.19,1.62,9.65,-0.12,0.67,-0.15,0.04,-0.16,-0.13,3137,2019-04-03 15:51:33:840
0.19,1.62,9.65,-0.12,0.67,-0.15,0.04,-0.16,-0.13,3140,2019-04-03 15:51:33:843
0.41,2.01,7.3,-0.04,0.52,-2.63,0.21,0.02,-0.11,3144,2019-04-03 15:51:33:847
0.41,2.01,7.3,-0.04,0.52,-2.63,0.21,0.02,-0.11,3150,2019-04-03 15:51:33:853
0.41,2.01,7.3,-0.04,0.52,-2.63,0.21,0.02,-0.11,3156,2019-04-03 15:51:33:859
0.41,2.01,7.3,-0.04,0.52,-2.63,0.21,0.02,-0.11,3160,2019-04-03 15:51:33:863
-0.04,-2.27,7.35,-0.71,-3.35,-2.55,-0.36,0.06,-0.11,3165,2019-04-03 15:51:33:868
-0.04,-2.27,7.35,-0.71,-3.35,-2.55,-0.36,0.06,-0.11,3170,2019-04-03 15:51:33:873
-0.04,-2.27,7.35,-0.71,-3.35,-2.55,-0.36,0.06,-0.11,3174,2019-04-03 15:51:33:877
-0.04,-2.27,7.35,-0.71,-3.35,-2.55,-0.36,0.06,-0.11,3179,2019-04-03 15:51:33:882
1.81,-6.67,2.94,0.57,-7.32,-6.0,0.08,-0.13,-0.11,3184,2019-04-03 15:51:33:887
1.81,-6.67,2.94,0.57,-7.32,-6.0,0.08,-0.13,-0.11,3191,2019-04-03 15:51:33:894
1.81,-6.67,2.94,0.57,-7.32,-6.0,0.08,-0.13,-0.11,3198,2019-04-03 15:51:33:901
1.81,-6.67,2.94,0.57,-7.32,-6.0,0.08,-0.13,-0.11,3199,2019-04-03 15:51:33:902
1.81,-6.67,2.94,0.57,-7.32,-6.0,0.08,-0.13,-0.11,3205,2019-04-03 15:51:33:908
1.81,-6.67,2.94,0.57,-7.32,-6.0,0.08,-0.13,-0.11,3210,2019-04-03 15:51:33:913
1.81,-6.67,2.94,0.57,-7.32,-6.0,0.08,-0.13,-0.11,3215,2019-04-03 15:51:33:918
10.51,-0.82,10.22,9.9,-1.03,2.18,-0.03,-0.24,-0.18,3220,2019-04-03 15:51:33:923
10.51,-0.82,10.22,9.9,-1.03,2.18,-0.03,-0.24,-0.18,3225,2019-04-03 15:51:33:928
10.51,-0.82,10.22,9.9,-1.03,2.18,-0.03,-0.24,-0.18,3231,2019-04-03 15:51:33:934
10.51,-0.82,10.22,9.9,-1.03,2.18,-0.03,-0.24,-0.18,3238,2019-04-03 15:51:33:941
10.51,-0.82,10.22,9.9,-1.03,2.18,-0.03,-0.24,-0.18,3240,2019-04-03 15:51:33:943
10.51,-0.82,10.22,9.9,-1.03,2.18,-0.03,-0.24,-0.18,3245,2019-04-03 15:51:33:948
10.51,-0.82,10.22,9.9,-1.03,2.18,-0.03,-0.24,-0.18,3250,2019-04-03 15:51:33:953
-9.58,1.41,0.94,9.9,-1.03,2.18,-0.03,-0.24,-0.18,3254,2019-04-03 15:51:33:957
-9.58,1.41,0.94,-9.95,1.18,-7.6,-0.01,0.1,-0.16,3260,2019-04-03 15:51:33:963
-9.58,1.41,0.94,-9.95,1.18,-7.6,-0.01,0.1,-0.16,3265,2019-04-03 15:51:33:968
-9.58,1.41,0.94,-9.95,1.18,-7.6,-0.01,0.1,-0.16,3270,2019-04-03 15:51:33:973
-9.58,1.41,0.94,-9.95,1.18,-7.6,-0.01,0.1,-0.16,3279,2019-04-03 15:51:33:982
-9.58,1.41,0.94,-9.95,1.18,-7.6,-0.01,0.1,-0.16,3280,2019-04-03 15:51:33:983
2.37,3.29,11.24,1.63,3.69,2.35,0.03,0.23,-0.19,3285,2019-04-03 15:51:33:988
2.37,3.29,11.24,1.63,3.69,2.35,0.03,0.23,-0.19,3290,2019-04-03 15:51:33:993
2.37,3.29,11.24,1.63,3.69,2.35,0.03,0.23,-0.19,3296,2019-04-03 15:51:33:999
-10.06,-1.95,-3.94,-10.27,-1.41,-12.6,0.05,0.47,-0.16,3300,2019-04-03 15:51:34:003
-10.06,-1.95,-3.94,-10.27,-1.41,-12.6,0.05,0.47,-0.16,3305,2019-04-03 15:51:34:008
-10.06,-1.95,-3.94,-10.27,-1.41,-12.6,0.05,0.47,-0.16,3310,2019-04-03 15:51:34:013
-10.06,-1.95,-3.94,-10.27,-1.41,-12.6,0.05,0.47,-0.16,3316,2019-04-03 15:51:34:019
-10.06,-1.95,-3.94,-10.27,-1.41,-12.6,0.05,0.47,-0.16,3323,2019-04-03 15:51:34:026
-10.06,-1.95,-3.94,-10.27,-1.41,-12.6,0.05,0.47,-0.16,3325,2019-04-03 15:51:34:028
-10.06,-1.95,-3.94,-10.27,-1.41,-12.6,0.05,0.47,-0.16,3330,2019-04-03 15:51:34:033
7.0,-1.66,9.32,6.34,-0.87,0.85,-0.14,-0.73,-0.33,3335,2019-04-03 15:51:34:038
7.0,-1.66,9.32,6.34,-0.87,0.85,-0.14,-0.73,-0.33,3340,2019-04-03 15:51:34:043
7.0,-1.66,9.32,6.34,-0.87,0.85,-0.14,-0.73,-0.33,3345,2019-04-03 15:51:34:048
7.0,-1.66,9.32,6.34,-0.87,0.85,-0.14,-0.73,-0.33,3350,2019-04-03 15:51:34:053
7.0,-1.66,9.32,6.34,-0.87,0.85,-0.14,-0.73,-0.33,3355,2019-04-03 15:51:34:058
7.0,-1.66,9.32,6.34,-0.87,0.85,-0.14,-0.73,-0.33,3360,2019-04-03 15:51:34:063
7.0,-1.66,9.32,6.34,-0.87,0.85,-0.14,-0.73,-0.33,3365,2019-04-03 15:51:34:068
7.0,-1.66,9.32,6.34,-0.87,0.85,-0.14,-0.73,-0.33,3370,2019-04-03 15:51:34:073
-1.91,2.05,8.02,-2.57,2.26,-0.17,-0.1,0.41,0.18,3375,2019-04-03 15:51:34:078
-1.91,2.05,8.02,-2.57,2.26,-0.17,-0.1,0.41,0.18,3380,2019-04-03 15:51:34:083
-1.91,2.05,8.02,-2.57,2.26,-0.17,-0.1,0.41,0.18,3385,2019-04-03 15:51:34:088
-1.91,2.05,8.02,-2.57,2.26,-0.17,-0.1,0.41,0.18,3390,2019-04-03 15:51:34:093
-1.91,2.05,8.02,-2.57,2.26,-0.17,-0.1,0.41,0.18,3394,2019-04-03 15:51:34:097
-6.35,-6.82,10.7,-6.67,-6.68,2.13,-0.13,0.09,0.11,3400,2019-04-03 15:51:34:103
-6.35,-6.82,10.7,-6.67,-6.68,2.13,-0.13,0.09,0.11,3406,2019-04-03 15:51:34:109
-6.35,-6.82,10.7,-6.67,-6.68,2.13,-0.13,0.09,0.11,3410,2019-04-03 15:51:34:113
-6.35,-6.82,10.7,-6.67,-6.68,2.13,-0.13,0.09,0.11,3415,2019-04-03 15:51:34:118
3.7,4.14,11.33,3.46,3.72,2.68,0.41,-0.39,-0.07,3420,2019-04-03 15:51:34:123
3.7,4.14,11.33,3.46,3.72,2.68,0.41,-0.39,-0.07,3425,2019-04-03 15:51:34:128
3.7,4.14,11.33,3.46,3.72,2.68,0.41,-0.39,-0.07,3430,2019-04-03 15:51:34:133
3.7,4.14,11.33,3.46,3.72,2.68,0.41,-0.39,-0.07,3435,2019-04-03 15:51:34:138
-5.2,-1.26,15.47,-5.4,-1.96,6.03,-0.18,0.04,-0.04,3446,2019-04-03 15:51:34:149
-5.2,-1.26,15.47,-5.4,-1.96,6.03,-0.18,0.04,-0.04,3446,2019-04-03 15:51:34:149
-5.2,-1.26,15.47,-5.4,-1.96,6.03,-0.18,0.04,-0.04,3450,2019-04-03 15:51:34:153
-5.2,-1.26,15.47,-5.4,-1.96,6.03,-0.18,0.04,-0.04,3455,2019-04-03 15:51:34:158
-5.2,-1.26,15.47,-5.4,-1.96,6.03,-0.18,0.04,-0.04,3460,2019-04-03 15:51:34:163
-5.2,-1.26,15.47,-5.4,-1.96,6.03,-0.18,0.04,-0.04,3464,2019-04-03 15:51:34:167
-5.2,-1.26,15.47,-5.4,-1.96,6.03,-0.18,0.04,-0.04,3470,2019-04-03 15:51:34:173
4.52,2.85,12.15,4.57,1.95,2.64,0.38,-0.41,-0.07,3475,2019-04-03 15:51:34:178
4.52,2.85,12.15,4.57,1.95,2.64,0.38,-0.41,-0.07,3482,2019-04-03 15:51:34:185
4.52,2.85,12.15,4.57,1.95,2.64,0.38,-0.41,-0.07,3486,2019-04-03 15:51:34:189
4.52,2.85,12.15,4.57,1.95,2.64,0.38,-0.41,-0.07,3490,2019-04-03 15:51:34:193
5.47,-4.08,12.29,4.87,-4.37,2.53,-0.37,-0.14,-0.02,3496,2019-04-03 15:51:34:199
5.47,-4.08,12.29,4.87,-4.37,2.53,0.02,0.1,-0.02,3503,2019-04-03 15:51:34:206
1.0,-1.39,13.32,0.47,-1.83,3.22,0.02,0.1,-0.02,3506,2019-04-03 15:51:34:209
1.0,-1.39,13.32,0.47,-1.83,3.22,0.02,0.1,-0.02,3510,2019-04-03 15:51:34:213
1.0,-1.39,13.32,0.47,-1.83,3.22,0.02,0.1,-0.02,3516,2019-04-03 15:51:34:219
1.0,-1.39,13.32,0.47,-1.83,3.22,0.02,0.1,-0.02,3520,2019-04-03 15:51:34:223
-1.95,6.46,9.87,-2.01,5.62,-0.24,-0.07,0.33,0.0,3525,2019-04-03 15:51:34:228
-1.95,6.46,9.87,-2.01,5.62,-0.24,-0.07,0.33,0.0,3529,2019-04-03 15:51:34:232
-1.95,6.46,9.87,-2.01,5.62,-0.24,-0.07,0.33,0.0,3535,2019-04-03 15:51:34:238
-1.95,6.46,9.87,-2.01,5.62,-0.24,-0.07,0.33,0.0,3540,2019-04-03 15:51:34:243
-1.95,6.46,9.87,-2.01,5.62,-0.24,-0.07,0.33,0.0,3545,2019-04-03 15:51:34:248
-0.09,3.32,13.36,0.15,2.6,2.9,-0.06,-0.09,-0.16,3550,2019-04-03 15:51:34:253
2.67,4.29,9.25,0.15,2.6,2.9,-0.06,-0.09,-0.16,3559,2019-04-03 15:51:34:262
2.67,4.29,9.25,2.73,3.48,-1.57,-0.28,-0.12,-0.25,3564,2019-04-03 15:51:34:267
2.67,4.29,9.25,2.73,3.48,-1.57,-0.28,-0.12,-0.25,3565,2019-04-03 15:51:34:268
2.67,4.29,9.25,2.73,3.48,-1.57,-0.28,-0.12,-0.25,3570,2019-04-03 15:51:34:273
2.67,4.29,9.25,2.73,3.48,-1.57,-0.28,-0.12,-0.25,3575,2019-04-03 15:51:34:278
2.67,4.29,9.25,2.73,3.48,-1.57,-0.28,-0.12,-0.25,3580,2019-04-03 15:51:34:283
10.83,3.83,11.83,10.62,2.21,0.98,0.15,-0.31,-0.36,3585,2019-04-03 15:51:34:288
10.83,3.83,11.83,10.62,2.21,0.98,0.15,-0.31,-0.36,3590,2019-04-03 15:51:34:293
10.83,3.83,11.83,10.62,2.21,0.98,0.15,-0.31,-0.36,3595,2019-04-03 15:51:34:298
10.83,3.83,11.83,10.62,2.21,0.98,0.15,-0.31,-0.36,3600,2019-04-03 15:51:34:303
10.83,3.83,11.83,10.62,2.21,0.98,0.15,-0.31,-0.36,3605,2019-04-03 15:51:34:308
10.83,3.83,11.83,10.62,2.21,0.98,0.15,-0.31,-0.36,3610,2019-04-03 15:51:34:313
6.42,3.03,13.39,6.29,1.74,2.45,0.0,0.11,-0.28,3615,2019-04-03 15:51:34:318
6.42,3.03,13.39,6.29,1.74,2.45,0.0,0.11,-0.28,3620,2019-04-03 15:51:34:323
6.42,3.03,13.39,6.29,1.74,2.45,0.0,0.11,-0.28,3625,2019-04-03 15:51:34:328
6.42,3.03,13.39,6.29,1.74,2.45,0.0,0.11,-0.28,3630,2019-04-03 15:51:34:333
6.42,3.03,13.39,6.29,1.74,2.45,0.0,0.11,-0.28,3635,2019-04-03 15:51:34:338
4.66,-0.96,7.71,4.13,-2.24,-2.93,-0.33,0.26,-0.27,3640,2019-04-03 15:51:34:343
4.66,-0.96,7.71,4.13,-2.24,-2.93,-0.33,0.26,-0.27,3645,2019-04-03 15:51:34:348
4.66,-0.96,7.71,4.13,-2.24,-2.93,-0.33,0.26,-0.27,3650,2019-04-03 15:51:34:353
4.66,-0.96,7.71,4.13,-2.24,-2.93,-0.33,0.26,-0.27,3655,2019-04-03 15:51:34:358
4.66,-0.96,7.71,4.13,-2.24,-2.93,-0.33,0.26,-0.27,3660,2019-04-03 15:51:34:363
4.66,-0.96,7.71,4.13,-2.24,-2.93,-0.33,0.26,-0.27,3665,2019-04-03 15:51:34:368
4.66,-0.96,7.71,4.13,-2.24,-2.93,-0.33,0.26,-0.27,3670,2019-04-03 15:51:34:373
-0.88,3.35,6.57,-0.81,2.51,-3.19,-0.07,0.07,-0.29,3676,2019-04-03 15:51:34:379
-0.88,3.35,6.57,-0.81,2.51,-3.19,-0.07,0.07,-0.29,3680,2019-04-03 15:51:34:383
-0.88,3.35,6.57,-0.81,2.51,-3.19,-0.14,0.01,-0.16,3685,2019-04-03 15:51:34:388
0.61,5.97,-4.88,0.3,4.39,-14.41,-0.14,0.01,-0.16,3690,2019-04-03 15:51:34:393
0.61,5.97,-4.88,0.3,4.39,-14.41,-0.14,0.01,-0.16,3695,2019-04-03 15:51:34:398
0.61,5.97,-4.88,0.3,4.39,-14.41,-0.14,0.01,-0.16,3700,2019-04-03 15:51:34:403
0.61,5.97,-4.88,0.3,4.39,-14.41,-0.14,0.01,-0.16,3704,2019-04-03 15:51:34:407
0.61,5.97,-4.88,0.3,4.39,-14.41,-0.14,0.01,-0.16,3710,2019-04-03 15:51:34:413
6.82,5.13,11.47,0.3,4.39,-14.41,0.15,-0.45,-0.11,3714,2019-04-03 15:51:34:417
6.82,5.13,11.47,6.3,3.31,2.09,0.15,-0.45,-0.11,3720,2019-04-03 15:51:34:423
6.82,5.13,11.47,6.3,3.31,2.09,0.15,-0.45,-0.11,3725,2019-04-03 15:51:34:428
6.82,5.13,11.47,6.3,3.31,2.09,0.15,-0.45,-0.11,3730,2019-04-03 15:51:34:433
6.67,6.6,5.5,6.08,4.48,-3.05,0.22,0.12,-0.01,3735,2019-04-03 15:51:34:438
6.67,6.6,5.5,6.08,4.48,-3.05,0.22,0.12,-0.01,3741,2019-04-03 15:51:34:444
6.67,6.6,5.5,6.08,4.48,-3.05,0.11,0.86,0.08,3745,2019-04-03 15:51:34:448
6.67,6.6,5.5,6.08,4.48,-3.05,0.11,0.86,0.08,3750,2019-04-03 15:51:34:453
6.67,6.6,5.5,6.08,4.48,-3.05,0.11,0.86,0.08,3755,2019-04-03 15:51:34:458
6.67,6.6,5.5,6.08,4.48,-3.05,0.11,0.86,0.08,3760,2019-04-03 15:51:34:463
-25.76,9.9,-12.22,-25.9,7.45,-20.66,-0.03,0.66,0.11,3765,2019-04-03 15:51:34:468
-25.76,9.9,-12.22,-25.9,7.45,-20.66,-0.03,0.66,0.11,3769,2019-04-03 15:51:34:472
-25.76,9.9,-12.22,-25.9,7.45,-20.66,-0.03,0.66,0.11,3775,2019-04-03 15:51:34:478
-25.76,9.9,-12.22,-25.9,7.45,-20.66,-0.03,0.66,0.11,3780,2019-04-03 15:51:34:483
11.82,-8.88,13.94,10.97,-10.89,5.18,-0.12,-1.91,-0.31,3785,2019-04-03 15:51:34:488
11.82,-8.88,13.94,10.97,-10.89,5.18,-0.12,-1.91,-0.31,3790,2019-04-03 15:51:34:493
11.82,-8.88,13.94,10.97,-10.89,5.18,-0.12,-1.91,-0.31,3795,2019-04-03 15:51:34:498
11.82,-8.88,13.94,10.97,-10.89,5.18,-0.12,-1.91,-0.31,3800,2019-04-03 15:51:34:503
11.82,-8.88,13.94,10.97,-10.89,5.18,-0.12,-1.91,-0.31,3805,2019-04-03 15:51:34:508
9.43,3.05,7.78,9.07,0.93,-0.9,0.59,0.17,0.0,3810,2019-04-03 15:51:34:513
9.43,3.05,7.78,9.07,0.93,-0.9,0.59,0.17,0.0,3816,2019-04-03 15:51:34:519
9.43,3.05,7.78,9.07,0.93,-0.9,0.59,0.17,0.0,3820,2019-04-03 15:51:34:523
-16.31,-3.66,2.58,-16.13,-5.33,-6.41,-0.4,0.93,0.1,3825,2019-04-03 15:51:34:528
-16.31,-3.66,2.58,-16.13,-5.33,-6.41,-0.4,0.93,0.1,3830,2019-04-03 15:51:34:533
-16.31,-3.66,2.58,-16.13,-5.33,-6.41,-0.4,0.93,0.1,3835,2019-04-03 15:51:34:538
-16.31,-3.66,2.58,-16.13,-5.33,-6.41,-0.4,0.93,0.1,3840,2019-04-03 15:51:34:543
4.13,-0.49,12.31,3.21,-2.57,2.69,0.14,-0.81,-0.25,3845,2019-04-03 15:51:34:548
4.13,-0.49,12.31,3.21,-2.57,2.69,0.14,-0.81,-0.25,3850,2019-04-03 15:51:34:553
4.13,-0.49,12.31,3.21,-2.57,2.69,0.14,-0.81,-0.25,3855,2019-04-03 15:51:34:558
4.13,-0.49,12.31,3.21,-2.57,2.69,0.14,-0.81,-0.25,3860,2019-04-03 15:51:34:563
4.13,-0.49,12.31,3.21,-2.57,2.69,0.14,-0.81,-0.25,3865,2019-04-03 15:51:34:568
4.13,-0.49,12.31,3.21,-2.57,2.69,0.14,-0.81,-0.25,3869,2019-04-03 15:51:34:572
6.5,2.35,15.9,5.65,0.26,5.98,0.13,-0.23,-0.06,3875,2019-04-03 15:51:34:578
6.5,2.35,15.9,5.65,0.26,5.98,0.13,-0.23,-0.06,3880,2019-04-03 15:51:34:583
3.7,4.45,4.87,5.65,0.26,5.98,-0.11,-0.55,-0.03,3885,2019-04-03 15:51:34:588
3.7,4.45,4.87,5.65,0.26,5.98,-0.11,-0.55,-0.03,3890,2019-04-03 15:51:34:593
3.7,4.45,4.87,5.65,0.26,5.98,-0.11,-0.55,-0.03,3895,2019-04-03 15:51:34:598
3.7,4.45,4.87,5.65,0.26,5.98,-0.11,-0.55,-0.03,3900,2019-04-03 15:51:34:603
-12.25,-0.99,-7.79,-12.09,-3.16,-17.82,0.49,0.82,0.03,3905,2019-04-03 15:51:34:608
-12.25,-0.99,-7.79,-12.09,-3.16,-17.82,0.49,0.82,0.03,3910,2019-04-03 15:51:34:613
-12.25,-0.99,-7.79,-12.09,-3.16,-17.82,0.49,0.82,0.03,3915,2019-04-03 15:51:34:618
-12.25,-0.99,-7.79,-12.09,-3.16,-17.82,0.49,0.82,0.03,3920,2019-04-03 15:51:34:623
-12.25,-0.99,-7.79,-12.09,-3.16,-17.82,0.49,0.82,0.03,3925,2019-04-03 15:51:34:628
-12.25,-0.99,-7.79,-12.09,-3.16,-17.82,0.49,0.82,0.03,3930,2019-04-03 15:51:34:633
-6.95,-0.19,5.04,-7.1,-1.53,-5.44,-0.11,-0.08,-0.06,3935,2019-04-03 15:51:34:638
-6.95,-0.19,5.04,-7.1,-1.53,-5.44,-0.11,-0.08,-0.06,3940,2019-04-03 15:51:34:643
-7.64,1.39,7.01,-7.1,-1.53,-5.44,-0.1,-0.37,-0.07,3945,2019-04-03 15:51:34:648
-7.64,1.39,7.01,-7.1,-1.53,-5.44,-0.1,-0.37,-0.07,3950,2019-04-03 15:51:34:653
-7.64,1.39,7.01,-7.1,-1.53,-5.44,-0.1,-0.37,-0.07,3955,2019-04-03 15:51:34:658
-7.64,1.39,7.01,-7.1,-1.53,-5.44,-0.1,-0.37,-0.07,3960,2019-04-03 15:51:34:663
-7.64,1.39,7.01,-7.1,-1.53,-5.44,-0.1,-0.37,-0.07,3965,2019-04-03 15:51:34:668
4.75,2.09,15.47,4.13,1.23,4.69,0.31,-0.18,-0.16,3969,2019-04-03 15:51:34:672
4.75,2.09,15.47,4.13,1.23,4.69,0.31,-0.18,-0.16,3975,2019-04-03 15:51:34:678
4.75,2.09,15.47,4.13,1.23,4.69,0.31,-0.18,-0.16,3980,2019-04-03 15:51:34:683
0.2,-0.87,9.55,0.59,-1.53,-1.25,-0.19,0.46,-0.04,3986,2019-04-03 15:51:34:689
0.2,-0.87,9.55,0.59,-1.53,-1.25,-0.19,0.46,-0.04,3990,2019-04-03 15:51:34:693
0.2,-0.87,9.55,0.59,-1.53,-1.25,-0.19,0.46,-0.04,3995,2019-04-03 15:51:34:698
0.2,-0.87,9.55,0.59,-1.53,-1.25,-0.19,0.46,-0.04,4000,2019-04-03 15:51:34:703
-8.21,0.05,2.51,-8.0,-0.69,-8.03,0.18,0.44,-0.05,4005,2019-04-03 15:51:34:708
-8.21,0.05,2.51,-8.0,-0.69,-8.03,0.18,0.44,-0.05,4010,2019-04-03 15:51:34:713
-8.21,0.05,2.51,-8.0,-0.69,-8.03,0.18,0.44,-0.05,4015,2019-04-03 15:51:34:718
-8.21,0.05,2.51,-8.0,-0.69,-8.03,0.18,0.44,-0.05,4020,2019-04-03 15:51:34:723
-8.21,0.05,2.51,-8.0,-0.69,-8.03,0.18,0.44,-0.05,4025,2019-04-03 15:51:34:728
-8.21,0.05,2.51,-8.0,-0.69,-8.03,0.18,0.44,-0.05,4030,2019-04-03 15:51:34:733
-7.15,-3.67,-7.8,-7.77,-4.4,-17.56,-0.06,-0.24,-0.13,4036,2019-04-03 15:51:34:739
-7.15,-3.67,-7.8,-7.77,-4.4,-17.56,-0.06,-0.24,-0.13,4040,2019-04-03 15:51:34:743
-7.15,-3.67,-7.8,-7.77,-4.4,-17.56,-0.06,-0.24,-0.13,4045,2019-04-03 15:51:34:748
-7.15,-3.67,-7.8,-7.77,-4.4,-17.56,-0.06,-0.24,-0.13,4050,2019-04-03 15:51:34:753
11.07,-2.95,16.05,10.83,-3.37,6.99,-0.08,-0.81,-0.26,4055,2019-04-03 15:51:34:758
11.07,-2.95,16.05,10.83,-3.37,6.99,-0.08,-0.81,-0.26,4060,2019-04-03 15:51:34:763
-3.77,-1.4,10.33,-3.44,-1.64,1.23,0.19,0.52,0.02,4065,2019-04-03 15:51:34:768
-3.77,-1.4,10.33,-3.44,-1.64,1.23,0.19,0.52,0.02,4070,2019-04-03 15:51:34:773
-3.77,-1.4,10.33,-3.44,-1.64,1.23,0.19,0.52,0.02,4075,2019-04-03 15:51:34:778
-3.77,-1.4,10.33,-3.44,-1.64,1.23,0.19,0.52,0.02,4080,2019-04-03 15:51:34:783
-6.4,-1.92,10.53,-6.05,-1.29,1.63,-0.15,0.1,-0.18,4085,2019-04-03 15:51:34:788
-6.4,-1.92,10.53,-6.05,-1.29,1.63,-0.15,0.1,-0.18,4090,2019-04-03 15:51:34:793
-6.4,-1.92,10.53,-6.05,-1.29,1.63,-0.15,0.1,-0.18,4095,2019-04-03 15:51:34:798
-6.4,-1.92,10.53,-6.05,-1.29,1.63,-0.15,0.1,-0.18,4100,2019-04-03 15:51:34:803
13.66,4.06,8.27,-6.05,-1.29,1.63,-0.15,0.1,-0.18,4105,2019-04-03 15:51:34:808
13.66,4.06,8.27,12.94,4.13,-1.72,-0.14,-0.54,-0.31,4110,2019-04-03 15:51:34:813
13.66,4.06,8.27,12.94,4.13,-1.72,-0.14,-0.54,-0.31,4115,2019-04-03 15:51:34:818
13.66,4.06,8.27,12.94,4.13,-1.72,-0.14,-0.54,-0.31,4120,2019-04-03 15:51:34:823
1.02,8.6,3.11,0.46,7.8,-5.83,0.52,0.49,0.03,4125,2019-04-03 15:51:34:828
1.02,8.6,3.11,0.46,7.8,-5.83,0.52,0.49,0.03,4130,2019-04-03 15:51:34:833
1.02,8.6,3.11,0.46,7.8,-5.83,0.52,0.49,0.03,4135,2019-04-03 15:51:34:838
1.02,8.6,3.11,0.46,7.8,-5.83,0.52,0.49,0.03,4140,2019-04-03 15:51:34:843
1.02,8.6,3.11,0.46,7.8,-5.83,0.52,0.49,0.03,4145,2019-04-03 15:51:34:848
1.02,8.6,3.11,0.46,7.8,-5.83,0.52,0.49,0.03,4150,2019-04-03 15:51:34:853
-7.54,-6.31,3.68,-8.02,-6.37,-4.58,-0.6,0.17,0.16,4155,2019-04-03 15:51:34:858
-7.54,-6.31,3.68,-8.02,-6.37,-4.58,-0.6,0.17,0.16,4160,2019-04-03 15:51:34:863
-7.54,-6.31,3.68,-8.02,-6.37,-4.58,-0.6,0.17,0.16,4165,2019-04-03 15:51:34:868
-7.54,-6.31,3.68,-8.02,-6.37,-4.58,-0.6,0.17,0.16,4170,2019-04-03 15:51:34:873
1.99,-2.51,7.08,1.27,-2.6,-0.42,0.23,-0.45,0.01,4174,2019-04-03 15:51:34:877
1.99,-2.51,7.08,1.27,-2.6,-0.42,0.23,-0.45,0.01,4180,2019-04-03 15:51:34:883
1.99,-2.51,7.08,1.27,-2.6,-0.42,0.47,-0.19,0.07,4185,2019-04-03 15:51:34:888
-5.46,0.02,5.3,5.85,4.64,5.14,0.47,-0.19,0.07,4190,2019-04-03 15:51:34:893
-5.46,0.02,5.3,5.85,4.64,5.14,0.47,-0.19,0.07,4195,2019-04-03 15:51:34:898
-5.46,0.02,5.3,5.85,4.64,5.14,0.47,-0.19,0.07,4200,2019-04-03 15:51:34:903
1.1,1.59,5.69,0.29,1.43,-1.61,-0.37,0.43,0.28,4205,2019-04-03 15:51:34:908
1.1,1.59,5.69,0.29,1.43,-1.61,-0.37,0.43,0.28,4210,2019-04-03 15:51:34:913
1.1,1.59,5.69,0.29,1.43,-1.61,-0.37,0.43,0.28,4215,2019-04-03 15:51:34:918
1.1,1.59,5.69,0.29,1.43,-1.61,-0.37,0.43,0.28,4220,2019-04-03 15:51:34:923
-8.66,3.82,0.22,-9.32,2.63,-7.16,0.12,0.39,0.24,4226,2019-04-03 15:51:34:929
-8.66,3.82,0.22,-9.32,2.63,-7.16,0.12,0.39,0.24,4230,2019-04-03 15:51:34:933
-8.66,3.82,0.22,-9.32,2.63,-7.16,0.12,0.39,0.24,4236,2019-04-03 15:51:34:939
-8.66,3.82,0.22,-9.32,2.63,-7.16,0.12,0.39,0.24,4240,2019-04-03 15:51:34:943
3.68,0.68,17.01,2.97,-0.48,8.89,0.15,-0.75,0.0,4245,2019-04-03 15:51:34:948
3.68,0.68,17.01,2.97,-0.48,8.89,0.15,-0.75,0.0,4250,2019-04-03 15:51:34:953
3.68,0.68,17.01,2.97,-0.48,8.89,0.15,-0.75,0.0,4256,2019-04-03 15:51:34:959
3.68,0.68,17.01,2.97,-0.48,8.89,0.15,-0.75,0.0,4260,2019-04-03 15:51:34:963
9.94,0.69,20.27,8.87,-0.51,11.76,-0.18,-0.23,0.06,4265,2019-04-03 15:51:34:968
9.94,0.69,20.27,8.87,-0.51,11.76,-0.18,-0.23,0.06,4270,2019-04-03 15:51:34:973
9.94,0.69,20.27,8.87,-0.51,11.76,-0.18,-0.23,0.06,4275,2019-04-03 15:51:34:978
9.94,0.69,20.27,8.87,-0.51,11.76,-0.18,-0.23,0.06,4280,2019-04-03 15:51:34:983
9.94,0.69,20.27,8.87,-0.51,11.76,-0.18,-0.23,0.06,4285,2019-04-03 15:51:34:988
-8.31,-0.8,11.2,-9.02,-2.12,2.61,-0.08,0.68,0.23,4290,2019-04-03 15:51:34:993
-8.31,-0.8,11.2,-9.02,-2.12,2.61,-0.08,0.68,0.23,4295,2019-04-03 15:51:34:998
-8.31,-0.8,11.2,-9.02,-2.12,2.61,-0.08,0.68,0.23,4300,2019-04-03 15:51:35:003
-2.72,-0.64,12.21,-2.88,-1.22,3.02,0.03,-0.24,0.0,4305,2019-04-03 15:51:35:008
-2.72,-0.64,12.21,-2.88,-1.22,3.02,0.03,-0.24,0.0,4310,2019-04-03 15:51:35:013
-2.72,-0.64,12.21,-2.88,-1.22,3.02,0.03,-0.24,0.0,4315,2019-04-03 15:51:35:018
-2.72,-0.64,12.21,-2.88,-1.22,3.02,0.03,-0.24,0.0,4320,2019-04-03 15:51:35:023
-2.72,-0.64,12.21,-2.88,-1.22,3.02,0.03,-0.24,0.0,4325,2019-04-03 15:51:35:028
-2.72,-0.64,12.21,-2.88,-1.22,3.02,0.03,-0.24,0.0,4330,2019-04-03 15:51:35:033
7.66,-1.22,16.16,7.55,-0.89,5.18,0.04,-0.49,-0.13,4334,2019-04-03 15:51:35:037
7.66,-1.22,16.16,7.55,-0.89,5.18,0.04,-0.49,-0.13,4340,2019-04-03 15:51:35:043
7.66,-1.22,16.16,7.55,-0.89,5.18,0.04,-0.49,-0.13,4345,2019-04-03 15:51:35:048
7.66,-1.22,16.16,7.55,-0.89,5.18,0.04,-0.49,-0.13,4350,2019-04-03 15:51:35:053
6.16,0.1,9.07,7.55,-0.89,5.18,-0.03,0.15,-0.12,4355,2019-04-03 15:51:35:058
6.16,0.1,9.07,6.45,0.02,-1.68,-0.03,0.15,-0.12,4360,2019-04-03 15:51:35:063
6.16,0.1,9.07,6.45,0.02,-1.68,-0.03,0.15,-0.12,4365,2019-04-03 15:51:35:068
-2.6,0.42,4.9,6.45,0.02,-1.68,0.11,0.57,-0.17,4370,2019-04-03 15:51:35:073
-2.6,0.42,4.9,6.45,0.02,-1.68,0.11,0.57,-0.17,4375,2019-04-03 15:51:35:078
-2.6,0.42,4.9,6.45,0.02,-1.68,0.11,0.57,-0.17,4380,2019-04-03 15:51:35:083
-5.28,1.03,17.25,6.45,0.02,-1.68,0.22,0.14,-0.28,4385,2019-04-03 15:51:35:088
-5.28,1.03,17.25,-4.56,0.85,6.19,0.22,0.14,-0.28,4390,2019-04-03 15:51:35:093
-5.28,1.03,17.25,-4.56,0.85,6.19,0.22,0.14,-0.28,4395,2019-04-03 15:51:35:098
-5.28,1.03,17.25,-4.56,0.85,6.19,0.22,0.14,-0.28,4400,2019-04-03 15:51:35:103
4.02,3.58,12.92,4.49,3.29,1.23,0.0,-0.24,-0.35,4405,2019-04-03 15:51:35:108
4.02,3.58,12.92,4.49,3.29,1.23,0.0,-0.24,-0.35,4410,2019-04-03 15:51:35:113
4.02,3.58,12.92,4.49,3.29,1.23,0.0,-0.24,-0.35,4415,2019-04-03 15:51:35:118
4.02,3.58,12.92,4.49,3.29,1.23,0.0,-0.24,-0.35,4420,2019-04-03 15:51:35:123
4.02,3.58,12.92,4.49,3.29,1.23,0.0,-0.24,-0.35,4425,2019-04-03 15:51:35:128
4.02,3.58,12.92,4.49,3.29,1.23,0.0,-0.24,-0.35,4430,2019-04-03 15:51:35:133
-1.3,0.42,8.71,-0.72,0.5,-3.52,-0.15,0.23,-0.12,4435,2019-04-03 15:51:35:138
-1.3,0.42,8.71,-0.72,0.5,-3.52,-0.15,0.23,-0.12,4439,2019-04-03 15:51:35:142
-1.3,0.42,8.71,-0.72,0.5,-3.52,-0.15,0.23,-0.12,4445,2019-04-03 15:51:35:148
-1.3,0.42,8.71,-0.72,0.5,-3.52,-0.15,0.23,-0.12,4450,2019-04-03 15:51:35:153
6.44,10.26,10.75,6.98,9.58,-1.19,0.16,-0.33,-0.24,4455,2019-04-03 15:51:35:158
6.44,10.26,10.75,6.98,9.58,-1.19,0.16,-0.33,-0.24,4460,2019-04-03 15:51:35:163
6.44,10.26,10.75,6.98,9.58,-1.19,0.16,-0.33,-0.24,4465,2019-04-03 15:51:35:168
6.44,10.26,10.75,6.98,9.58,-1.19,0.16,-0.33,-0.24,4470,2019-04-03 15:51:35:173
8.08,2.92,21.93,8.46,1.54,9.41,-0.12,0.01,-0.08,4475,2019-04-03 15:51:35:178
8.08,2.92,21.93,8.46,1.54,9.41,-0.12,0.01,-0.08,4479,2019-04-03 15:51:35:182
-3.58,1.86,-4.92,-3.3,0.08,-15.79,0.27,0.74,0.07,4485,2019-04-03 15:51:35:188
-3.58,1.86,-4.92,-3.3,0.08,-15.79,0.27,0.74,0.07,4490,2019-04-03 15:51:35:193
-3.58,1.86,-4.92,-3.3,0.08,-15.79,0.27,0.74,0.07,4495,2019-04-03 15:51:35:198
-3.58,1.86,-4.92,-3.3,0.08,-15.79,0.27,0.74,0.07,4500,2019-04-03 15:51:35:203
-5.96,-2.21,-0.81,-6.06,-3.64,-10.26,-0.08,0.11,-0.01,4509,2019-04-03 15:51:35:212
-5.96,-2.21,-0.81,-6.06,-3.64,-10.26,-0.08,0.11,-0.01,4510,2019-04-03 15:51:35:213
-5.96,-2.21,-0.81,-6.06,-3.64,-10.26,-0.08,0.11,-0.01,4515,2019-04-03 15:51:35:218
-5.96,-2.21,-0.81,-6.06,-3.64,-10.26,-0.08,0.11,-0.01,4520,2019-04-03 15:51:35:223
6.0,1.91,8.49,5.74,-0.06,-0.08,0.13,-0.55,-0.09,4525,2019-04-03 15:51:35:228
6.0,1.91,8.49,5.74,-0.06,-0.08,0.13,-0.55,-0.09,4530,2019-04-03 15:51:35:233
6.0,1.91,8.49,5.74,-0.06,-0.08,0.13,-0.55,-0.09,4535,2019-04-03 15:51:35:238
6.0,1.91,8.49,5.74,-0.06,-0.08,0.13,-0.55,-0.09,4540,2019-04-03 15:51:35:243
7.35,2.15,19.33,6.77,-0.24,10.07,0.11,0.12,0.09,4545,2019-04-03 15:51:35:248
7.35,2.15,19.33,6.77,-0.24,10.07,0.11,0.12,0.09,4550,2019-04-03 15:51:35:253
7.35,2.15,19.33,6.77,-0.24,10.07,0.11,0.12,0.09,4555,2019-04-03 15:51:35:258
7.35,2.15,19.33,6.77,-0.24,10.07,0.11,0.12,0.09,4560,2019-04-03 15:51:35:263
7.35,2.15,19.33,6.77,-0.24,10.07,0.11,0.12,0.09,4564,2019-04-03 15:51:35:267
7.35,2.15,19.33,6.77,-0.24,10.07,0.11,0.12,0.09,4570,2019-04-03 15:51:35:273
-4.65,0.97,5.08,-5.25,-1.55,-4.58,0.24,0.69,0.2,4575,2019-04-03 15:51:35:278
-4.65,0.97,5.08,-5.25,-1.55,-4.58,0.24,0.69,0.2,4580,2019-04-03 15:51:35:283
-5.94,-3.22,0.14,-5.25,-1.55,-4.58,-0.38,0.08,0.16,4585,2019-04-03 15:51:35:288
-5.94,-3.22,0.14,-5.25,-1.55,-4.58,-0.38,0.08,0.16,4589,2019-04-03 15:51:35:292
-5.94,-3.22,0.14,-5.25,-1.55,-4.58,-0.38,0.08,0.16,4596,2019-04-03 15:51:35:299
-5.94,-3.22,0.14,-5.25,-1.55,-4.58,-0.38,0.08,0.16,4600,2019-04-03 15:51:35:303
-2.44,-3.33,12.17,-3.28,-5.02,3.49,-0.15,-0.38,0.06,4605,2019-04-03 15:51:35:308
-2.44,-3.33,12.17,-3.28,-5.02,3.49,-0.15,-0.38,0.06,4610,2019-04-03 15:51:35:313
-2.44,-3.33,12.17,-3.28,-5.02,3.49,-0.15,-0.38,0.06,4615,2019-04-03 15:51:35:318
-2.44,-3.33,12.17,-3.28,-5.02,3.49,-0.15,-0.38,0.06,4620,2019-04-03 15:51:35:323
-2.44,-3.33,12.17,-3.28,-5.02,3.49,-0.15,-0.38,0.06,4625,2019-04-03 15:51:35:328
-2.44,-3.33,12.17,-3.28,-5.02,3.49,-0.15,-0.38,0.06,4630,2019-04-03 15:51:35:333
4.46,4.26,15.09,3.51,2.52,6.21,0.36,-0.33,0.0,4635,2019-04-03 15:51:35:338
4.46,4.26,15.09,3.51,2.52,6.21,0.36,-0.33,0.0,4640,2019-04-03 15:51:35:343
4.46,4.26,15.09,3.51,2.52,6.21,-0.31,0.15,0.06,4645,2019-04-03 15:51:35:348
4.46,4.26,15.09,3.51,2.52,6.21,-0.31,0.15,0.06,4650,2019-04-03 15:51:35:353
4.46,4.26,15.09,3.51,2.52,6.21,-0.31,0.15,0.06,4655,2019-04-03 15:51:35:358
4.46,4.26,15.09,3.51,2.52,6.21,-0.31,0.15,0.06,4660,2019-04-03 15:51:35:363
4.46,4.26,15.09,3.51,2.52,6.21,-0.31,0.15,0.06,4665,2019-04-03 15:51:35:368
0.96,0.13,6.12,0.56,-0.68,-1.58,-0.21,0.13,0.02,4670,2019-04-03 15:51:35:373
0.96,0.13,6.12,0.56,-0.68,-1.58,-0.21,0.13,0.02,4676,2019-04-03 15:51:35:379
0.96,0.13,6.12,0.56,-0.68,-1.58,-0.21,0.13,0.02,4680,2019-04-03 15:51:35:383
3.98,-1.63,10.18,3.15,-2.13,1.25,0.19,-0.11,0.03,4685,2019-04-03 15:51:35:388
3.98,-1.63,10.18,3.15,-2.13,1.25,0.19,-0.11,0.03,4689,2019-04-03 15:51:35:392
3.98,-1.63,10.18,3.15,-2.13,1.25,0.19,-0.11,0.03,4695,2019-04-03 15:51:35:398
3.98,-1.63,10.18,3.15,-2.13,1.25,0.19,-0.11,0.03,4700,2019-04-03 15:51:35:403
-11.59,2.73,10.95,-11.31,2.26,0.46,-0.13,0.43,0.14,4705,2019-04-03 15:51:35:408
-11.59,2.73,10.95,-11.31,2.26,0.46,-0.13,0.43,0.14,4710,2019-04-03 15:51:35:413
-11.59,2.73,10.95,-11.31,2.26,0.46,-0.13,0.43,0.14,4715,2019-04-03 15:51:35:418
-3.9,0.25,15.78,-3.59,-0.4,4.48,-0.29,-0.32,-0.06,4719,2019-04-03 15:51:35:422
-3.9,0.25,15.78,-3.59,-0.4,4.48,-0.29,-0.32,-0.06,4725,2019-04-03 15:51:35:428
-3.9,0.25,15.78,-3.59,-0.4,4.48,-0.29,-0.32,-0.06,4730,2019-04-03 15:51:35:433
-3.9,0.25,15.78,-2.67,1.42,-0.7,-0.2,0.43,0.11,4735,2019-04-03 15:51:35:438
-3.9,0.25,15.78,-2.67,1.42,-0.7,-0.2,0.43,0.11,4740,2019-04-03 15:51:35:443
-3.9,0.25,15.78,-2.67,1.42,-0.7,-0.2,0.43,0.11,4745,2019-04-03 15:51:35:448
-3.9,0.25,15.78,-2.67,1.42,-0.7,-0.2,0.43,0.11,4750,2019-04-03 15:51:35:453
3.23,3.46,8.37,3.57,2.87,-2.34,0.33,-0.4,-0.06,4755,2019-04-03 15:51:35:458
3.23,3.46,8.37,3.57,2.87,-2.34,0.33,-0.4,-0.06,4760,2019-04-03 15:51:35:463
3.23,3.46,8.37,3.57,2.87,-2.34,-0.26,0.04,-0.06,4765,2019-04-03 15:51:35:468
1.8,0.47,13.59,3.57,2.87,-2.34,-0.26,0.04,-0.06,4770,2019-04-03 15:51:35:473
1.8,0.47,13.59,3.57,2.87,-2.34,-0.26,0.04,-0.06,4775,2019-04-03 15:51:35:478
1.8,0.47,13.59,3.57,2.87,-2.34,-0.26,0.04,-0.06,4780,2019-04-03 15:51:35:483
0.11,-2.77,6.13,0.77,-3.3,-5.26,-0.2,-0.15,-0.16,4785,2019-04-03 15:51:35:488
0.11,-2.77,6.13,0.77,-3.3,-5.26,-0.2,-0.15,-0.16,4790,2019-04-03 15:51:35:493
0.11,-2.77,6.13,0.77,-3.3,-5.26,-0.2,-0.15,-0.16,4795,2019-04-03 15:51:35:498
0.11,-2.77,6.13,0.77,-3.3,-5.26,-0.2,-0.15,-0.16,4800,2019-04-03 15:51:35:503
5.64,0.87,12.79,6.12,0.3,1.37,0.11,-0.25,-0.21,4804,2019-04-03 15:51:35:507
5.64,0.87,12.79,6.12,0.3,1.37,0.11,-0.25,-0.21,4811,2019-04-03 15:51:35:514
5.64,0.87,12.79,6.12,0.3,1.37,0.11,-0.25,-0.21,4815,2019-04-03 15:51:35:518
-1.59,0.52,8.53,6.12,0.3,1.37,0.0,0.22,-0.1,4820,2019-04-03 15:51:35:523
-1.59,0.52,8.53,6.12,0.3,1.37,0.0,0.22,-0.1,4825,2019-04-03 15:51:35:528
-1.59,0.52,8.53,6.12,0.3,1.37,0.0,0.22,-0.1,4830,2019-04-03 15:51:35:533
-1.59,0.52,8.53,6.12,0.3,1.37,0.0,0.22,-0.1,4835,2019-04-03 15:51:35:538
-1.59,0.52,8.53,6.12,0.3,1.37,0.0,0.22,-0.1,4840,2019-04-03 15:51:35:543
-5.75,0.9,0.54,-5.51,0.91,-9.8,-0.16,0.0,-0.09,4845,2019-04-03 15:51:35:548
-5.75,0.9,0.54,-5.51,0.91,-9.8,-0.16,0.0,-0.09,4850,2019-04-03 15:51:35:553
-5.75,0.9,0.54,-5.51,0.91,-9.8,-0.16,0.0,-0.09,4855,2019-04-03 15:51:35:558
-5.75,0.9,0.54,-5.51,0.91,-9.8,-0.16,0.0,-0.09,4860,2019-04-03 15:51:35:563
-5.75,0.9,0.54,-5.51,0.91,-9.8,-0.16,0.0,-0.09,4865,2019-04-03 15:51:35:568
7.99,3.44,14.86,7.96,3.21,4.1,0.06,-0.67,-0.09,4870,2019-04-03 15:51:35:573
7.99,3.44,14.86,7.96,3.21,4.1,0.06,-0.67,-0.09,4875,2019-04-03 15:51:35:578
7.99,3.44,14.86,7.96,3.21,4.1,0.06,-0.67,-0.09,4880,2019-04-03 15:51:35:583
5.65,10.04,12.53,5.82,9.05,1.76,0.07,0.03,0.27,4885,2019-04-03 15:51:35:588
5.65,10.04,12.53,5.82,9.05,1.76,0.07,0.03,0.27,4890,2019-04-03 15:51:35:593
5.65,10.04,12.53,5.82,9.05,1.76,0.07,0.03,0.27,4895,2019-04-03 15:51:35:598
5.65,10.04,12.53,5.82,9.05,1.76,0.07,0.03,0.27,4900,2019-04-03 15:51:35:603
-15.0,-0.41,6.06,-15.51,-1.67,-4.75,-0.41,0.58,0.63,4905,2019-04-03 15:51:35:608
-15.0,-0.41,6.06,-15.51,-1.67,-4.75,-0.41,0.58,0.63,4910,2019-04-03 15:51:35:613
-15.0,-0.41,6.06,-15.51,-1.67,-4.75,-0.41,0.58,0.63,4915,2019-04-03 15:51:35:618
-15.0,-0.41,6.06,-15.51,-1.67,-4.75,-0.41,0.58,0.63,4920,2019-04-03 15:51:35:623
7.96,0.69,9.93,7.19,-0.62,-0.37,0.01,-0.93,0.27,4925,2019-04-03 15:51:35:628
7.96,0.69,9.93,7.19,-0.62,-0.37,0.01,-0.93,0.27,4930,2019-04-03 15:51:35:633
7.96,0.69,9.93,7.19,-0.62,-0.37,0.01,-0.93,0.27,4934,2019-04-03 15:51:35:637
7.96,0.69,9.93,7.19,-0.62,-0.37,0.01,-0.93,0.27,4940,2019-04-03 15:51:35:643
9.31,2.28,5.27,8.79,1.25,-4.32,0.18,-0.01,0.3,4945,2019-04-03 15:51:35:648
9.31,2.28,5.27,8.79,1.25,-4.32,0.18,-0.01,0.3,4950,2019-04-03 15:51:35:653
9.31,2.28,5.27,8.79,1.25,-4.32,0.18,-0.01,0.3,4955,2019-04-03 15:51:35:658
9.31,2.28,5.27,8.79,1.25,-4.32,0.18,-0.01,0.3,4960,2019-04-03 15:51:35:663
-9.34,-0.38,-0.28,8.79,1.25,-4.32,0.18,-0.01,0.3,4966,2019-04-03 15:51:35:669
-9.34,-0.38,-0.28,-9.77,-1.49,-9.6,-0.21,0.71,0.39,4970,2019-04-03 15:51:35:673
-0.36,-0.62,15.12,-9.77,-1.49,-9.6,-0.21,0.71,0.39,4975,2019-04-03 15:51:35:678
-0.36,-0.62,15.12,-9.77,-1.49,-9.6,-0.21,0.71,0.39,4980,2019-04-03 15:51:35:683
-0.36,-0.62,15.12,-9.77,-1.49,-9.6,-0.21,0.71,0.39,4986,2019-04-03 15:51:35:689
-0.36,-0.62,15.12,-9.77,-1.49,-9.6,-0.21,0.71,0.39,4990,2019-04-03 15:51:35:693
-0.36,-0.62,15.12,-12.62,-0.81,-0.53,-0.21,0.71,0.39,4995,2019-04-03 15:51:35:698
-0.36,-0.62,15.12,-12.62,-0.81,-0.53,-0.21,0.71,0.39,5000,2019-04-03 15:51:35:703
6.55,2.98,12.9,4.36,0.79,3.08,0.04,-0.12,0.17,5005,2019-04-03 15:51:35:708
6.55,2.98,12.9,4.36,0.79,3.08,0.04,-0.12,0.17,5010,2019-04-03 15:51:35:713
6.55,2.98,12.9,4.36,0.79,3.08,0.04,-0.12,0.17,5015,2019-04-03 15:51:35:718
-7.67,0.05,9.3,4.36,0.79,3.08,0.0,0.64,0.27,5020,2019-04-03 15:51:35:723
-7.67,0.05,9.3,4.36,0.79,3.08,0.0,0.64,0.27,5026,2019-04-03 15:51:35:729
-7.67,0.05,9.3,4.36,0.79,3.08,0.0,0.64,0.27,5030,2019-04-03 15:51:35:733
-0.81,0.96,15.98,-1.34,-1.12,4.95,0.2,-0.31,0.04,5035,2019-04-03 15:51:35:738
-0.81,0.96,15.98,-1.34,-1.12,4.95,0.2,-0.31,0.04,5040,2019-04-03 15:51:35:743
-0.81,0.96,15.98,-1.34,-1.12,4.95,0.2,-0.31,0.04,5046,2019-04-03 15:51:35:749
-0.81,0.96,15.98,-1.34,-1.12,4.95,0.2,-0.31,0.04,5050,2019-04-03 15:51:35:753
4.46,-0.29,14.82,4.59,-1.81,3.83,-0.03,-0.14,0.02,5055,2019-04-03 15:51:35:758
4.46,-0.29,14.82,4.59,-1.81,3.83,-0.03,-0.14,0.02,5060,2019-04-03 15:51:35:763
4.46,-0.29,14.82,4.59,-1.81,3.83,-0.03,-0.14,0.02,5065,2019-04-03 15:51:35:768
4.46,-0.29,14.82,4.59,-1.81,3.83,-0.03,-0.14,0.02,5070,2019-04-03 15:51:35:773
-3.34,-4.42,9.95,-2.9,-5.07,-0.91,0.0,0.39,0.04,5075,2019-04-03 15:51:35:778
-3.34,-4.42,9.95,-2.9,-5.07,-0.91,0.0,0.39,0.04,5080,2019-04-03 15:51:35:783
-3.34,-4.42,9.95,-2.9,-5.07,-0.91,0.0,0.39,0.04,5086,2019-04-03 15:51:35:789
-3.34,-4.42,9.95,-2.9,-5.07,-0.91,0.0,0.39,0.04,5090,2019-04-03 15:51:35:793
-7.18,-3.38,7.88,-6.71,-3.74,-2.26,-0.01,0.21,-0.06,5095,2019-04-03 15:51:35:798
-7.18,-3.38,7.88,-6.71,-3.74,-2.26,-0.01,0.21,-0.06,5100,2019-04-03 15:51:35:803
-7.18,-3.38,7.88,-6.71,-3.74,-2.26,-0.01,0.21,-0.06,5105,2019-04-03 15:51:35:808
-7.18,-3.38,7.88,-6.71,-3.74,-2.26,-0.01,0.21,-0.06,5110,2019-04-03 15:51:35:813
-7.18,-3.38,7.88,-6.71,-3.74,-2.26,-0.01,0.21,-0.06,5115,2019-04-03 15:51:35:818
2.28,-1.82,15.89,2.88,-1.52,5.28,-0.02,-0.35,-0.23,5120,2019-04-03 15:51:35:823
2.28,-1.82,15.89,2.88,-1.52,5.28,-0.02,-0.35,-0.23,5125,2019-04-03 15:51:35:828
2.28,-1.82,15.89,2.88,-1.52,5.28,-0.02,-0.35,-0.23,5130,2019-04-03 15:51:35:833
3.98,-1.37,11.67,4.55,-1.05,0.28,-0.03,0.04,-0.16,5135,2019-04-03 15:51:35:838
3.98,-1.37,11.67,4.55,-1.05,0.28,-0.03,0.04,-0.16,5140,2019-04-03 15:51:35:843
3.98,-1.37,11.67,4.55,-1.05,0.28,-0.03,0.04,-0.16,5145,2019-04-03 15:51:35:848
3.98,-1.37,11.67,4.55,-1.05,0.28,-0.03,0.04,-0.16,5150,2019-04-03 15:51:35:853
-7.27,0.31,11.12,-6.75,0.58,-0.93,0.03,0.42,-0.13,5155,2019-04-03 15:51:35:858
-7.27,0.31,11.12,-6.75,0.58,-0.93,0.03,0.42,-0.13,5160,2019-04-03 15:51:35:863
-7.27,0.31,11.12,-6.75,0.58,-0.93,0.03,0.42,-0.13,5165,2019-04-03 15:51:35:868
-7.27,0.31,11.12,-6.75,0.58,-0.93,0.03,0.42,-0.13,5170,2019-04-03 15:51:35:873
1.19,1.94,11.71,1.99,2.03,0.03,-0.04,-0.24,-0.3,5175,2019-04-03 15:51:35:878
1.19,1.94,11.71,1.99,2.03,0.03,-0.04,-0.24,-0.3,5180,2019-04-03 15:51:35:883
1.19,1.94,11.71,1.99,2.03,0.03,-0.04,-0.24,-0.3,5185,2019-04-03 15:51:35:888
1.19,1.94,11.71,1.99,2.03,0.03,-0.04,-0.24,-0.3,5190,2019-04-03 15:51:35:893
3.22,5.33,10.0,3.76,5.3,-1.62,0.05,-0.12,-0.21,5196,2019-04-03 15:51:35:899
3.22,5.33,10.0,3.76,5.3,-1.62,0.05,-0.12,-0.21,5200,2019-04-03 15:51:35:903
3.22,5.33,10.0,3.76,5.3,-1.62,0.05,-0.12,-0.21,5209,2019-04-03 15:51:35:912
3.22,5.33,10.0,3.76,5.3,-1.62,0.05,-0.12,-0.21,5210,2019-04-03 15:51:35:913
3.22,5.33,10.0,3.76,5.3,-1.62,0.05,-0.12,-0.21,5215,2019-04-03 15:51:35:918
3.22,5.33,10.0,3.76,5.3,-1.62,0.05,-0.12,-0.21,5220,2019-04-03 15:51:35:923
1.64,5.59,13.16,2.03,5.11,1.34,-0.05,0.02,-0.19,5225,2019-04-03 15:51:35:928
1.64,5.59,13.16,2.03,5.11,1.34,-0.05,0.02,-0.19,5230,2019-04-03 15:51:35:933
1.64,5.59,13.16,2.03,5.11,1.34,-0.05,0.02,-0.19,5235,2019-04-03 15:51:35:938
1.64,5.59,13.16,2.03,5.11,1.34,-0.05,0.02,-0.19,5240,2019-04-03 15:51:35:943
3.91,-7.86,-7.13,4.18,-7.57,-17.84,-0.14,-0.05,-0.08,5245,2019-04-03 15:51:35:948
3.91,-7.86,-7.13,4.18,-7.57,-17.84,-0.14,-0.05,-0.08,5250,2019-04-03 15:51:35:953
3.91,-7.86,-7.13,4.18,-7.57,-17.84,-0.14,-0.05,-0.08,5255,2019-04-03 15:51:35:958
3.91,-7.86,-7.13,4.18,-7.57,-17.84,-0.14,-0.05,-0.08,5260,2019-04-03 15:51:35:963
3.91,-7.86,-7.13,4.18,-7.57,-17.84,-0.14,-0.05,-0.08,5265,2019-04-03 15:51:35:968
6.92,-2.71,15.9,6.82,-2.16,5.71,0.0,-0.26,-0.02,5270,2019-04-03 15:51:35:973
6.92,-2.71,15.9,6.82,-2.16,5.71,0.0,-0.26,-0.02,5275,2019-04-03 15:51:35:978
6.92,-2.71,15.9,6.82,-2.16,5.71,0.0,-0.26,-0.02,5280,2019-04-03 15:51:35:983
1.83,3.73,5.22,1.68,4.11,-4.99,0.1,0.4,0.12,5285,2019-04-03 15:51:35:988
1.83,3.73,5.22,1.68,4.11,-4.99,0.1,0.4,0.12,5290,2019-04-03 15:51:35:993
1.83,3.73,5.22,1.68,4.11,-4.99,0.1,0.4,0.12,5295,2019-04-03 15:51:35:998
1.83,3.73,5.22,1.68,4.11,-4.99,0.1,0.4,0.12,5300,2019-04-03 15:51:36:003
1.83,3.73,5.22,1.68,4.11,-4.99,0.1,0.4,0.12,5305,2019-04-03 15:51:36:008
1.83,3.73,5.22,1.68,4.11,-4.99,0.1,0.4,0.12,5310,2019-04-03 15:51:36:013
1.77,-4.33,12.18,1.46,-4.12,2.71,0.02,-0.72,0.03,5315,2019-04-03 15:51:36:018
1.77,-4.33,12.18,1.46,-4.12,2.71,0.02,-0.72,0.03,5320,2019-04-03 15:51:36:023
1.77,-4.33,12.18,1.46,-4.12,2.71,0.02,-0.72,0.03,5325,2019-04-03 15:51:36:028
1.77,-4.33,12.18,1.46,-4.12,2.71,0.02,-0.72,0.03,5330,2019-04-03 15:51:36:033
17.15,-8.13,0.49,16.24,-7.45,-7.94,-0.03,-0.59,-0.03,5335,2019-04-03 15:51:36:038
17.15,-8.13,0.49,16.24,-7.45,-7.94,-0.03,-0.59,-0.03,5341,2019-04-03 15:51:36:044
17.15,-8.13,0.49,16.24,-7.45,-7.94,-0.03,-0.59,-0.03,5345,2019-04-03 15:51:36:048
17.15,-8.13,0.49,16.24,-7.45,-7.94,-0.03,-0.59,-0.03,5351,2019-04-03 15:51:36:054
17.15,-8.13,0.49,16.24,-7.45,-7.94,-0.03,-0.59,-0.03,5355,2019-04-03 15:51:36:058
17.15,-8.13,0.49,16.24,-7.45,-7.94,-0.03,-0.59,-0.03,5360,2019-04-03 15:51:36:063
17.15,-8.13,0.49,16.24,-7.45,-7.94,-0.03,-0.59,-0.03,5365,2019-04-03 15:51:36:068
4.84,-2.82,11.02,4.05,-2.08,3.91,0.25,0.66,0.11,5369,2019-04-03 15:51:36:072
4.84,-2.82,11.02,4.05,-2.08,3.91,0.25,0.66,0.11,5375,2019-04-03 15:51:36:078
4.84,-2.82,11.02,4.05,-2.08,3.91,0.25,0.66,0.11,5380,2019-04-03 15:51:36:083
-20.06,5.07,8.03,-20.28,6.1,0.54,-0.15,1.02,0.2,5385,2019-04-03 15:51:36:088
-20.06,5.07,8.03,-20.28,6.1,0.54,-0.15,1.02,0.2,5390,2019-04-03 15:51:36:093
-20.06,5.07,8.03,-20.28,6.1,0.54,-0.15,1.02,0.2,5396,2019-04-03 15:51:36:099
-20.06,5.07,8.03,-20.28,6.1,0.54,-0.15,1.02,0.2,5400,2019-04-03 15:51:36:103
3.02,-2.56,17.97,2.14,-1.5,9.82,-0.26,-0.89,-0.2,5405,2019-04-03 15:51:36:108
3.02,-2.56,17.97,2.14,-1.5,9.82,-0.26,-0.89,-0.2,5410,2019-04-03 15:51:36:113
-4.32,-4.77,6.75,2.14,-1.5,9.82,0.47,-0.29,-0.12,5415,2019-04-03 15:51:36:118
-4.32,-4.77,6.75,2.14,-1.5,9.82,0.47,-0.29,-0.12,5421,2019-04-03 15:51:36:124
-4.32,-4.77,6.75,2.14,-1.5,9.82,0.47,-0.29,-0.12,5425,2019-04-03 15:51:36:128
-4.32,-4.77,6.75,2.14,-1.5,9.82,0.47,-0.29,-0.12,5430,2019-04-03 15:51:36:133
4.46,-5.55,4.16,4.02,-4.19,-3.91,-0.18,0.39,-0.01,5435,2019-04-03 15:51:36:138
4.46,-5.55,4.16,4.02,-4.19,-3.91,-0.18,0.39,-0.01,5440,2019-04-03 15:51:36:143
4.46,-5.55,4.16,4.02,-4.19,-3.91,-0.18,0.39,-0.01,5445,2019-04-03 15:51:36:148
4.46,-5.55,4.16,4.02,-4.19,-3.91,-0.18,0.39,-0.01,5451,2019-04-03 15:51:36:154
0.8,1.53,12.65,0.8,2.16,4.46,0.0,0.28,-0.09,5455,2019-04-03 15:51:36:158
0.8,1.53,12.65,0.8,2.16,4.46,0.0,0.28,-0.09,5460,2019-04-03 15:51:36:163
0.8,1.53,12.65,0.8,2.16,4.46,0.0,0.28,-0.09,5465,2019-04-03 15:51:36:168
0.8,1.53,12.65,0.8,2.16,4.46,0.0,0.28,-0.09,5470,2019-04-03 15:51:36:173
0.8,1.53,12.65,0.8,2.16,4.46,0.0,0.28,-0.09,5475,2019-04-03 15:51:36:178
0.8,1.53,12.65,0.8,2.16,4.46,0.0,0.28,-0.09,5480,2019-04-03 15:51:36:183
-6.02,2.38,8.41,-6.14,3.16,-0.08,0.11,0.31,-0.05,5485,2019-04-03 15:51:36:188
-6.02,2.38,8.41,-6.14,3.16,-0.08,0.11,0.31,-0.05,5490,2019-04-03 15:51:36:193
-6.02,2.38,8.41,-6.14,3.16,-0.08,0.11,0.31,-0.05,5495,2019-04-03 15:51:36:198
-6.02,2.38,8.41,-6.14,3.16,-0.08,0.11,0.31,-0.05,5501,2019-04-03 15:51:36:204
5.52,-3.48,18.5,4.51,-2.58,9.22,-0.23,-0.42,-0.22,5505,2019-04-03 15:51:36:208
5.52,-3.48,18.5,4.51,-2.58,9.22,-0.23,-0.42,-0.22,5510,2019-04-03 15:51:36:213
5.52,-3.48,18.5,4.51,-2.58,9.22,-0.23,-0.42,-0.22,5515,2019-04-03 15:51:36:218
1.01,3.55,8.1,0.85,3.88,-0.67,0.18,0.27,-0.09,5520,2019-04-03 15:51:36:223
1.01,3.55,8.1,0.85,3.88,-0.67,0.18,0.27,-0.09,5526,2019-04-03 15:51:36:229
1.01,3.55,8.1,0.85,3.88,-0.67,0.18,0.27,-0.09,5530,2019-04-03 15:51:36:233
-6.05,9.16,6.15,-5.58,8.71,-3.79,-0.25,0.44,-0.01,5536,2019-04-03 15:51:36:239
-6.05,9.16,6.15,-5.58,8.71,-3.79,-0.25,0.44,-0.01,5540,2019-04-03 15:51:36:243
-6.05,9.16,6.15,-5.58,8.71,-3.79,-0.25,0.44,-0.01,5545,2019-04-03 15:51:36:248
-6.05,9.16,6.15,-5.58,8.71,-3.79,-0.25,0.44,-0.01,5550,2019-04-03 15:51:36:253
-4.11,-3.99,0.78,-4.43,-4.43,-9.44,-0.18,-0.21,-0.05,5555,2019-04-03 15:51:36:258
-4.11,-3.99,0.78,-4.43,-4.43,-9.44,-0.18,-0.21,-0.05,5560,2019-04-03 15:51:36:263
-4.11,-3.99,0.78,-4.43,-4.43,-9.44,-0.18,-0.21,-0.05,5568,2019-04-03 15:51:36:271
-4.11,-3.99,0.78,-4.43,-4.43,-9.44,-0.18,-0.21,-0.05,5569,2019-04-03 15:51:36:272
2.58,2.01,10.63,1.9,1.57,1.17,0.35,-0.46,-0.08,5576,2019-04-03 15:51:36:279
2.58,2.01,10.63,1.9,1.57,1.17,0.35,-0.46,-0.08,5580,2019-04-03 15:51:36:283
2.58,2.01,10.63,1.9,1.57,1.17,0.35,-0.46,-0.08,5590,2019-04-03 15:51:36:293
2.58,2.01,10.63,1.9,1.57,1.17,0.35,-0.46,-0.08,5591,2019-04-03 15:51:36:294
2.58,2.01,10.63,1.9,1.57,1.17,0.35,-0.46,-0.08,5595,2019-04-03 15:51:36:298
3.13,1.7,17.33,3.0,1.59,8.3,-0.05,-0.04,0.0,5600,2019-04-03 15:51:36:303
3.13,1.7,17.33,3.0,1.59,8.3,-0.05,-0.04,0.0,5605,2019-04-03 15:51:36:308
3.13,1.7,17.33,3.0,1.59,8.3,-0.05,-0.04,0.0,5610,2019-04-03 15:51:36:313
0.21,-0.08,4.61,0.16,-0.14,-4.29,-0.08,0.12,0.01,5615,2019-04-03 15:51:36:318
0.21,-0.08,4.61,0.16,-0.14,-4.29,-0.08,0.12,0.01,5620,2019-04-03 15:51:36:323
0.21,-0.08,4.61,0.16,-0.14,-4.29,-0.08,0.12,0.01,5626,2019-04-03 15:51:36:329
0.21,-0.08,4.61,0.16,-0.14,-4.29,-0.08,0.12,0.01,5630,2019-04-03 15:51:36:333
-4.03,-2.45,5.75,-3.95,-2.86,-3.39,0.1,0.2,0.03,5636,2019-04-03 15:51:36:339
-4.03,-2.45,5.75,-3.95,-2.86,-3.39,0.1,0.2,0.03,5640,2019-04-03 15:51:36:343
-4.03,-2.45,5.75,-3.95,-2.86,-3.39,0.1,0.2,0.03,5645,2019-04-03 15:51:36:348
-4.03,-2.45,5.75,-3.95,-2.86,-3.39,0.1,0.2,0.03,5651,2019-04-03 15:51:36:354
-6.82,1.43,9.86,-6.91,1.4,0.89,0.01,0.04,0.02,5655,2019-04-03 15:51:36:358
-6.82,1.43,9.86,-6.91,1.4,0.89,0.01,0.04,0.02,5660,2019-04-03 15:51:36:363
-6.82,1.43,9.86,-6.91,1.4,0.89,0.01,0.04,0.02,5666,2019-04-03 15:51:36:369
-6.82,1.43,9.86,-6.91,1.4,0.89,0.01,0.04,0.02,5670,2019-04-03 15:51:36:373
-6.82,1.43,9.86,-6.91,1.4,0.89,0.01,0.04,0.02,5675,2019-04-03 15:51:36:378
-3.6,-4.51,3.84,-3.99,-4.56,-4.85,-0.15,-0.36,-0.06,5680,2019-04-03 15:51:36:383
-3.6,-4.51,3.84,-3.99,-4.56,-4.85,-0.15,-0.36,-0.06,5687,2019-04-03 15:51:36:390
-3.6,-4.51,3.84,-3.99,-4.56,-4.85,-0.15,-0.36,-0.06,5690,2019-04-03 15:51:36:393
10.02,0.44,9.5,9.51,0.2,1.47,0.18,-0.54,-0.15,5696,2019-04-03 15:51:36:399
10.02,0.44,9.5,9.51,0.2,1.47,0.18,-0.54,-0.15,5700,2019-04-03 15:51:36:403
10.02,0.44,9.5,9.51,0.2,1.47,0.18,-0.54,-0.15,5705,2019-04-03 15:51:36:408
10.02,0.44,9.5,9.51,0.2,1.47,0.18,-0.54,-0.15,5711,2019-04-03 15:51:36:414
10.02,0.44,9.5,9.51,0.2,1.47,0.18,-0.54,-0.15,5717,2019-04-03 15:51:36:420
3.1,-1.84,3.07,2.52,-1.75,-4.64,-0.14,0.37,0.03,5724,2019-04-03 15:51:36:427
3.1,-1.84,3.07,2.52,-1.75,-4.64,-0.14,0.37,0.03,5725,2019-04-03 15:51:36:428
3.1,-1.84,3.07,2.52,-1.75,-4.64,-0.14,0.37,0.03,5731,2019-04-03 15:51:36:434
3.1,-1.84,3.07,2.52,-1.75,-4.64,-0.03,0.59,0.06,5738,2019-04-03 15:51:36:441
3.1,-1.84,3.07,2.52,-1.75,-4.64,-0.03,0.59,0.06,5739,2019-04-03 15:51:36:442
3.1,-1.84,3.07,2.52,-1.75,-4.64,-0.03,0.59,0.06,5745,2019-04-03 15:51:36:448
3.1,-1.84,3.07,2.52,-1.75,-4.64,-0.03,0.59,0.06,5750,2019-04-03 15:51:36:453
3.1,-1.84,3.07,2.52,-1.75,-4.64,-0.03,0.59,0.06,5755,2019-04-03 15:51:36:458
1.49,0.29,5.1,0.77,0.74,-2.67,0.15,-0.4,-0.12,5759,2019-04-03 15:51:36:462
1.49,0.29,5.1,0.77,0.74,-2.67,0.15,-0.4,-0.12,5766,2019-04-03 15:51:36:469
1.49,0.29,5.1,0.77,0.74,-2.67,0.15,-0.4,-0.12,5770,2019-04-03 15:51:36:473
1.49,0.29,5.1,0.77,0.74,-2.67,0.15,-0.4,-0.12,5774,2019-04-03 15:51:36:477
2.56,1.06,10.47,2.07,1.32,2.43,-0.13,-0.05,-0.06,5779,2019-04-03 15:51:36:482
2.56,1.06,10.47,2.07,1.32,2.43,-0.13,-0.05,-0.06,5785,2019-04-03 15:51:36:488
2.56,1.06,10.47,2.07,1.32,2.43,-0.13,-0.05,-0.06,5791,2019-04-03 15:51:36:494
-0.85,1.91,5.48,-1.24,1.47,-1.93,0.2,0.45,0.03,5796,2019-04-03 15:51:36:499
-0.85,1.91,5.48,-1.24,1.47,-1.93,0.2,0.45,0.03,5800,2019-04-03 15:51:36:503
-0.85,1.91,5.48,-1.24,1.47,-1.93,0.2,0.45,0.03,5805,2019-04-03 15:51:36:508
-0.85,1.91,5.48,-1.24,1.47,-1.93,0.2,0.45,0.03,5811,2019-04-03 15:51:36:514
-0.85,1.91,5.48,-1.24,1.47,-1.93,0.2,0.45,0.03,5817,2019-04-03 15:51:36:520
-0.85,1.91,5.48,-1.24,1.47,-1.93,0.2,0.45,0.03,5820,2019-04-03 15:51:36:523
-10.27,1.16,5.39,-10.82,0.95,-2.51,0.22,0.18,0.09,5825,2019-04-03 15:51:36:528
11.91,-0.02,22.39,-10.82,0.95,-2.51,0.01,-0.84,-0.19,5835,2019-04-03 15:51:36:538
11.91,-0.02,22.39,-10.82,0.95,-2.51,0.01,-0.84,-0.19,5835,2019-04-03 15:51:36:538
11.91,-0.02,22.39,-10.82,0.95,-2.51,0.01,-0.84,-0.19,5840,2019-04-03 15:51:36:543
11.91,-0.02,22.39,-10.82,0.95,-2.51,0.01,-0.84,-0.19,5845,2019-04-03 15:51:36:548
11.91,-0.02,22.39,-10.82,0.95,-2.51,0.01,-0.84,-0.19,5850,2019-04-03 15:51:36:553
-1.16,0.04,13.68,-1.7,-0.67,4.66,0.24,0.56,0.07,5856,2019-04-03 15:51:36:559
-1.16,0.04,13.68,-1.7,-0.67,4.66,0.24,0.56,0.07,5862,2019-04-03 15:51:36:565
-1.16,0.04,13.68,-1.7,-0.67,4.66,0.24,0.56,0.07,5865,2019-04-03 15:51:36:568
-1.16,0.04,13.68,-1.7,-0.67,4.66,0.24,0.56,0.07,5870,2019-04-03 15:51:36:573
-1.16,0.04,13.68,-1.7,-0.67,4.66,0.24,0.56,0.07,5874,2019-04-03 15:51:36:577
-16.3,2.22,4.93,-16.27,1.3,-4.44,0.0,0.75,0.12,5881,2019-04-03 15:51:36:584
-16.3,2.22,4.93,-16.27,1.3,-4.44,0.0,0.75,0.12,5885,2019-04-03 15:51:36:588
-16.3,2.22,4.93,-16.27,1.3,-4.44,0.0,0.75,0.12,5890,2019-04-03 15:51:36:593
-7.08,-2.78,15.6,-6.71,-3.61,4.59,-0.04,-0.38,-0.07,5895,2019-04-03 15:51:36:598
-7.08,-2.78,15.6,-6.71,-3.61,4.59,-0.04,-0.38,-0.07,5903,2019-04-03 15:51:36:606
-7.08,-2.78,15.6,-6.71,-3.61,4.59,-0.04,-0.38,-0.07,5905,2019-04-03 15:51:36:608
-7.08,-2.78,15.6,-6.71,-3.61,4.59,-0.04,-0.38,-0.07,5910,2019-04-03 15:51:36:613
-2.55,0.27,10.15,-2.5,-0.64,-2.1,0.13,-0.24,0.01,5917,2019-04-03 15:51:36:620
-2.55,0.27,10.15,-2.5,-0.64,-2.1,0.13,-0.24,0.01,5921,2019-04-03 15:51:36:624
-2.55,0.27,10.15,-2.5,-0.64,-2.1,0.13,-0.24,0.01,5925,2019-04-03 15:51:36:628
-2.55,0.27,10.15,-2.5,-0.64,-2.1,0.13,-0.24,0.01,5930,2019-04-03 15:51:36:633
-2.74,-0.11,7.91,-2.82,-1.14,-4.71,-0.1,-0.04,0.08,5936,2019-04-03 15:51:36:639
-2.74,-0.11,7.91,-2.82,-1.14,-4.71,-0.1,-0.04,0.08,5943,2019-04-03 15:51:36:646
-2.74,-0.11,7.91,-2.82,-1.14,-4.71,-0.1,-0.04,0.08,5945,2019-04-03 15:51:36:648
-2.74,-0.11,7.91,-2.82,-1.14,-4.71,-0.1,-0.04,0.08,5950,2019-04-03 15:51:36:653
-6.08,1.92,7.03,-5.6,0.6,-5.54,-0.05,-0.04,0.03,5959,2019-04-03 15:51:36:662
-6.08,1.92,7.03,-5.6,0.6,-5.54,-0.05,-0.04,0.03,5960,2019-04-03 15:51:36:663
0.01,1.66,13.25,0.21,0.19,0.05,0.12,-0.39,-0.05,5971,2019-04-03 15:51:36:674
0.01,1.66,13.25,0.21,0.19,0.05,0.12,-0.39,-0.05,5974,2019-04-03 15:51:36:677
0.01,1.66,13.25,0.21,0.19,0.05,0.12,-0.39,-0.05,5975,2019-04-03 15:51:36:678
0.01,1.66,13.25,0.21,0.19,0.05,0.12,-0.39,-0.05,5980,2019-04-03 15:51:36:683
0.01,1.66,13.25,0.21,0.19,0.05,0.12,-0.39,-0.05,5985,2019-04-03 15:51:36:688
0.01,1.66,13.25,0.21,0.19,0.05,0.12,-0.39,-0.05,5990,2019-04-03 15:51:36:693
3.28,0.06,15.74,3.51,-0.81,2.12,-0.18,-0.15,-0.06,5996,2019-04-03 15:51:36:699
3.28,0.06,15.74,3.51,-0.81,2.12,-0.18,-0.15,-0.06,6000,2019-04-03 15:51:36:703
3.28,0.06,15.74,3.51,-0.81,2.12,-0.18,-0.15,-0.06,6005,2019-04-03 15:51:36:708
3.28,0.06,15.74,3.51,-0.81,2.12,-0.18,-0.15,-0.06,6010,2019-04-03 15:51:36:713
1.32,-1.84,19.6,1.77,-2.87,5.92,-0.1,0.11,-0.06,6017,2019-04-03 15:51:36:720
1.32,-1.84,19.6,1.77,-2.87,5.92,-0.1,0.11,-0.06,6020,2019-04-03 15:51:36:723
1.32,-1.84,19.6,1.77,-2.87,5.92,-0.1,0.11,-0.06,6025,2019-04-03 15:51:36:728
1.32,-1.84,19.6,1.77,-2.87,5.92,-0.1,0.11,-0.06,6030,2019-04-03 15:51:36:733
-4.15,4.53,9.45,-2.88,3.52,-3.9,0.09,0.23,-0.08,6035,2019-04-03 15:51:36:738
-4.15,4.53,9.45,-2.88,3.52,-3.9,0.09,0.23,-0.08,6041,2019-04-03 15:51:36:744
-4.15,4.53,9.45,-2.88,3.52,-3.9,0.09,0.23,-0.08,6045,2019-04-03 15:51:36:748
-4.15,4.53,9.45,-2.88,3.52,-3.9,0.09,0.23,-0.08,6051,2019-04-03 15:51:36:754
3.28,-2.1,8.9,3.7,-2.88,-4.33,-0.24,-0.25,-0.19,6064,2019-04-03 15:51:36:767
3.28,-2.1,8.9,3.7,-2.88,-4.33,-0.24,-0.25,-0.19,6067,2019-04-03 15:51:36:770
3.28,-2.1,8.9,3.7,-2.88,-4.33,-0.24,-0.25,-0.19,6067,2019-04-03 15:51:36:770
0.38,2.38,3.96,0.73,1.76,-8.57,-0.36,0.22,-0.09,6070,2019-04-03 15:51:36:773
0.38,2.38,3.96,0.73,1.76,-8.57,-0.36,0.22,-0.09,6079,2019-04-03 15:51:36:782
0.38,2.38,3.96,0.73,1.76,-8.57,-0.36,0.22,-0.09,6079,2019-04-03 15:51:36:782
-5.7,6.15,13.86,-5.43,5.4,1.47,-0.3,-0.01,-0.11,6097,2019-04-03 15:51:36:800
-5.7,6.15,13.86,-5.43,5.4,1.47,-0.3,-0.01,-0.11,6097,2019-04-03 15:51:36:800
-5.7,6.15,13.86,-5.43,5.4,1.47,-0.3,-0.01,-0.11,6097,2019-04-03 15:51:36:800
-5.7,6.15,13.86,-5.43,5.4,1.47,-0.3,-0.01,-0.11,6100,2019-04-03 15:51:36:803
-5.7,6.15,13.86,-5.43,5.4,1.47,-0.3,-0.01,-0.11,6105,2019-04-03 15:51:36:808
-5.7,6.15,13.86,-5.43,5.4,1.47,-0.3,-0.01,-0.11,6110,2019-04-03 15:51:36:813
9.19,7.69,15.49,9.44,6.38,3.33,0.22,-0.6,-0.29,6115,2019-04-03 15:51:36:818
9.19,7.69,15.49,9.44,6.38,3.33,0.22,-0.6,-0.29,6120,2019-04-03 15:51:36:823
9.19,7.69,15.49,9.44,6.38,3.33,0.22,-0.6,-0.29,6125,2019-04-03 15:51:36:828
9.19,7.69,15.49,9.44,6.38,3.33,0.22,-0.6,-0.29,6130,2019-04-03 15:51:36:833
-0.14,-1.03,19.12,0.37,-2.29,6.54,-0.11,0.24,-0.07,6135,2019-04-03 15:51:36:838
-0.14,-1.03,19.12,0.37,-2.29,6.54,-0.11,0.24,-0.07,6143,2019-04-03 15:51:36:846
-0.14,-1.03,19.12,0.37,-2.29,6.54,-0.11,0.24,-0.07,6145,2019-04-03 15:51:36:848
-0.14,-1.03,19.12,0.37,-2.29,6.54,-0.11,0.24,-0.07,6150,2019-04-03 15:51:36:853
5.53,5.97,8.64,5.95,4.52,-3.52,-0.02,-0.2,-0.25,6155,2019-04-03 15:51:36:858
5.53,5.97,8.64,5.95,4.52,-3.52,-0.02,-0.2,-0.25,6160,2019-04-03 15:51:36:863
5.53,5.97,8.64,5.95,4.52,-3.52,-0.02,-0.2,-0.25,6165,2019-04-03 15:51:36:868
5.53,5.97,8.64,5.95,4.52,-3.52,-0.02,-0.2,-0.25,6170,2019-04-03 15:51:36:873
5.7,4.12,25.09,6.07,2.51,13.21,0.0,-0.02,-0.31,6175,2019-04-03 15:51:36:878
5.7,4.12,25.09,6.07,2.51,13.21,0.0,-0.02,-0.31,6180,2019-04-03 15:51:36:883
5.7,4.12,25.09,6.07,2.51,13.21,0.0,-0.02,-0.31,6187,2019-04-03 15:51:36:890
-15.42,18.17,-1.72,-14.35,15.35,-13.62,0.52,0.66,-0.22,6192,2019-04-03 15:51:36:895
-15.42,18.17,-1.72,-14.35,15.35,-13.62,0.52,0.66,-0.22,6195,2019-04-03 15:51:36:898
-15.42,18.17,-1.72,-14.35,15.35,-13.62,0.52,0.66,-0.22,6200,2019-04-03 15:51:36:903
-15.42,18.17,-1.72,-14.35,15.35,-13.62,0.52,0.66,-0.22,6205,2019-04-03 15:51:36:908
-15.42,18.17,-1.72,-14.35,15.35,-13.62,0.52,0.66,-0.22,6210,2019-04-03 15:51:36:913
-15.42,18.17,-1.72,-14.35,15.35,-13.62,0.52,0.66,-0.22,6215,2019-04-03 15:51:36:918
-15.42,18.17,-1.72,-14.35,15.35,-13.62,0.52,0.66,-0.22,6220,2019-04-03 15:51:36:923
-4.03,0.06,14.3,-3.71,-2.92,1.19,-0.67,-0.82,-0.34,6226,2019-04-03 15:51:36:929
-4.03,0.06,14.3,-3.71,-2.92,1.19,-0.67,-0.82,-0.34,6230,2019-04-03 15:51:36:933
20.33,-2.52,29.85,-3.71,-2.92,1.19,0.39,-1.01,-0.31,6236,2019-04-03 15:51:36:939
20.33,-2.52,29.85,-3.71,-2.92,1.19,0.39,-1.01,-0.31,6240,2019-04-03 15:51:36:943
20.33,-2.52,29.85,-3.71,-2.92,1.19,0.39,-1.01,-0.31,6245,2019-04-03 15:51:36:948
20.33,-2.52,29.85,-3.71,-2.92,1.19,0.39,-1.01,-0.31,6250,2019-04-03 15:51:36:953
-4.67,1.39,6.89,-4.08,-1.66,-7.28,0.34,1.08,0.15,6258,2019-04-03 15:51:36:961
-4.67,1.39,6.89,-4.08,-1.66,-7.28,0.34,1.08,0.15,6260,2019-04-03 15:51:36:963
-4.67,1.39,6.89,-4.08,-1.66,-7.28,0.34,1.08,0.15,6266,2019-04-03 15:51:36:969
-4.67,1.39,6.89,-4.08,-1.66,-7.28,0.34,1.08,0.15,6270,2019-04-03 15:51:36:973
-21.89,-0.32,0.0,-21.33,-3.27,-14.47,-0.84,0.62,0.15,6275,2019-04-03 15:51:36:978
-21.89,-0.32,0.0,-21.33,-3.27,-14.47,-0.84,0.62,0.15,6280,2019-04-03 15:51:36:983
-21.89,-0.32,0.0,-21.33,-3.27,-14.47,-0.84,0.62,0.15,6285,2019-04-03 15:51:36:988
-21.89,-0.32,0.0,-21.33,-3.27,-14.47,-0.84,0.62,0.15,6290,2019-04-03 15:51:36:993
0.93,10.95,21.53,0.49,7.08,6.38,0.12,-1.43,-0.08,6296,2019-04-03 15:51:36:999
0.93,10.95,21.53,0.49,7.08,6.38,0.12,-1.43,-0.08,6301,2019-04-03 15:51:37:004
0.93,10.95,21.53,0.49,7.08,6.38,0.12,-1.43,-0.08,6305,2019-04-03 15:51:37:008
0.93,10.95,21.53,0.49,7.08,6.38,0.12,-1.43,-0.08,6310,2019-04-03 15:51:37:013
0.93,10.95,21.53,0.49,7.08,6.38,0.12,-1.43,-0.08,6315,2019-04-03 15:51:37:018
18.83,8.57,22.32,18.98,4.4,7.45,0.29,-0.62,-0.03,6320,2019-04-03 15:51:37:023
18.83,8.57,22.32,18.98,4.4,7.45,0.29,-0.62,-0.03,6326,2019-04-03 15:51:37:029
18.83,8.57,22.32,18.98,4.4,7.45,0.29,-0.62,-0.03,6330,2019-04-03 15:51:37:033
-7.73,0.33,10.2,-7.0,-4.1,-5.16,-0.14,1.27,0.26,6335,2019-04-03 15:51:37:038
-7.73,0.33,10.2,-7.0,-4.1,-5.16,-0.14,1.27,0.26,6341,2019-04-03 15:51:37:044
-7.73,0.33,10.2,-7.0,-4.1,-5.16,-0.14,1.27,0.26,6345,2019-04-03 15:51:37:048
-7.73,0.33,10.2,-7.0,-4.1,-5.16,-0.14,1.27,0.26,6350,2019-04-03 15:51:37:053
-7.73,0.33,10.2,-7.0,-4.1,-5.16,-0.14,1.27,0.26,6355,2019-04-03 15:51:37:058
-11.82,-3.11,4.61,-11.41,-6.97,-11.51,0.0,0.0,-0.01,6361,2019-04-03 15:51:37:064
-11.82,-3.11,4.61,-11.41,-6.97,-11.51,0.0,0.0,-0.01,6364,2019-04-03 15:51:37:067
-11.82,-3.11,4.61,-11.41,-6.97,-11.51,0.0,0.0,-0.01,6371,2019-04-03 15:51:37:074
-11.82,11.09,25.43,9.64,7.16,8.88,-0.13,-0.72,-0.25,6375,2019-04-03 15:51:37:078
9.08,11.09,25.43,9.64,7.16,8.88,-0.13,-0.72,-0.25,6380,2019-04-03 15:51:37:083
9.08,11.09,25.43,9.64,7.16,8.88,-0.13,-0.72,-0.25,6385,2019-04-03 15:51:37:088
-14.81,-5.85,-8.01,-14.75,-7.84,-23.56,-0.23,0.81,0.14,6391,2019-04-03 15:51:37:094
-14.81,-5.85,-8.01,-14.75,-7.84,-23.56,-0.23,0.81,0.14,6399,2019-04-03 15:51:37:102
-14.81,-5.85,-8.01,-14.75,-7.84,-23.56,-0.23,0.81,0.14,6408,2019-04-03 15:51:37:111
-14.81,-5.85,-8.01,-14.75,-7.84,-23.56,-0.23,0.81,0.14,6409,2019-04-03 15:51:37:112
-14.81,-5.85,-8.01,-14.75,-7.84,-23.56,-0.23,0.81,0.14,6413,2019-04-03 15:51:37:116
-14.81,-5.85,-8.01,-14.75,-7.84,-23.56,-0.23,0.81,0.14,6415,2019-04-03 15:51:37:118
-14.81,-5.85,-8.01,-14.75,-7.84,-23.56,-0.23,0.81,0.14,6420,2019-04-03 15:51:37:123
5.67,-9.15,4.82,5.34,-10.13,-8.36,-0.3,-0.96,-0.32,6425,2019-04-03 15:51:37:128
5.67,-9.15,4.82,5.34,-10.13,-8.36,-0.3,-0.96,-0.32,6430,2019-04-03 15:51:37:133
5.67,-9.15,4.82,5.34,-10.13,-8.36,-0.3,-0.96,-0.32,6436,2019-04-03 15:51:37:139
-0.26,11.16,11.44,5.34,-10.13,-8.36,0.53,0.11,-0.07,6443,2019-04-03 15:51:37:146
-0.26,11.16,11.44,0.48,10.02,-0.91,0.53,0.11,-0.07,6446,2019-04-03 15:51:37:149
-0.26,11.16,11.44,0.48,10.02,-0.91,0.53,0.11,-0.07,6450,2019-04-03 15:51:37:153
-0.26,11.16,11.44,0.48,10.02,-0.91,0.53,0.11,-0.07,6456,2019-04-03 15:51:37:159
-6.2,10.46,9.43,-5.61,8.25,-2.24,0.56,0.19,-0.12,6460,2019-04-03 15:51:37:163
-6.2,10.46,9.43,-5.61,8.25,-2.24,0.56,0.19,-0.12,6467,2019-04-03 15:51:37:170
-6.2,10.46,9.43,-5.61,8.25,-2.24,0.56,0.19,-0.12,6470,2019-04-03 15:51:37:173
1.76,-0.59,21.19,1.17,-2.78,8.45,-0.07,-0.08,-0.04,6476,2019-04-03 15:51:37:179
1.76,-0.59,21.19,1.17,-2.78,8.45,-0.07,-0.08,-0.04,6480,2019-04-03 15:51:37:183
1.76,-0.59,21.19,1.17,-2.78,8.45,-0.07,-0.08,-0.04,6485,2019-04-03 15:51:37:188
1.76,-0.59,21.19,1.17,-2.78,8.45,-0.07,-0.08,-0.04,6490,2019-04-03 15:51:37:193
-10.03,8.65,6.37,-9.18,7.15,-4.83,0.57,0.31,-0.08,6495,2019-04-03 15:51:37:198
-10.03,8.65,6.37,-9.18,7.15,-4.83,0.57,0.31,-0.08,6499,2019-04-03 15:51:37:202
-10.03,8.65,6.37,-9.18,7.15,-4.83,0.57,0.31,-0.08,6507,2019-04-03 15:51:37:210
-10.03,8.65,6.37,-9.18,7.15,-4.83,0.57,0.31,-0.08,6510,2019-04-03 15:51:37:213
4.97,-6.69,10.34,5.17,-7.05,-0.58,-0.41,-0.4,-0.18,6517,2019-04-03 15:51:37:220
4.97,-6.69,10.34,5.17,-7.05,-0.58,-0.41,-0.4,-0.18,6520,2019-04-03 15:51:37:223
4.97,-6.69,10.34,5.17,-7.05,-0.58,-0.41,-0.4,-0.18,6525,2019-04-03 15:51:37:228
4.97,-6.69,10.34,5.17,-7.05,-0.58,-0.41,-0.4,-0.18,6530,2019-04-03 15:51:37:233
-7.99,-5.37,6.24,-8.15,-5.38,-3.57,0.17,0.39,0.04,6535,2019-04-03 15:51:37:238
-7.99,-5.37,6.24,-8.15,-5.38,-3.57,0.17,0.39,0.04,6540,2019-04-03 15:51:37:243
-7.99,-5.37,6.24,-8.15,-5.38,-3.57,0.17,0.39,0.04,6544,2019-04-03 15:51:37:247
-7.99,-5.37,6.24,-8.15,-5.38,-3.57,0.17,0.39,0.04,6550,2019-04-03 15:51:37:253
1.37,-0.54,-1.31,0.95,-0.34,-10.37,0.12,-0.26,-0.12,6554,2019-04-03 15:51:37:257
1.37,-0.54,-1.31,0.95,-0.34,-10.37,0.12,-0.26,-0.12,6560,2019-04-03 15:51:37:263
1.37,-0.54,-1.31,0.95,-0.34,-10.37,0.12,-0.26,-0.12,6565,2019-04-03 15:51:37:268
1.37,-0.54,-1.31,0.95,-0.34,-10.37,0.12,-0.26,-0.12,6570,2019-04-03 15:51:37:273
12.6,-7.13,13.63,11.74,-6.35,5.89,-0.14,-0.41,-0.2,6575,2019-04-03 15:51:37:278
12.6,-7.13,13.63,11.74,-6.35,5.89,-0.14,-0.41,-0.2,6580,2019-04-03 15:51:37:283
12.6,-7.13,13.63,11.74,-6.35,5.89,-0.14,-0.41,-0.2,6587,2019-04-03 15:51:37:290
12.6,-7.13,13.63,11.74,-6.35,5.89,-0.14,-0.41,-0.2,6590,2019-04-03 15:51:37:293
12.6,-7.13,13.63,11.74,-6.35,5.89,-0.14,-0.41,-0.2,6595,2019-04-03 15:51:37:298
12.6,-7.13,13.63,11.74,-6.35,5.89,-0.14,-0.41,-0.2,6600,2019-04-03 15:51:37:303
-5.77,3.78,0.44,-6.17,3.66,-7.38,0.36,0.92,0.06,6608,2019-04-03 15:51:37:311
-5.77,3.78,0.44,-6.17,3.66,-7.38,0.36,0.92,0.06,6610,2019-04-03 15:51:37:313
-5.77,3.78,0.44,-6.17,3.66,-7.38,0.36,0.92,0.06,6615,2019-04-03 15:51:37:318
-5.77,3.78,0.44,-6.17,3.66,-7.38,0.36,0.92,0.06,6621,2019-04-03 15:51:37:324
-5.77,3.78,0.44,-6.17,3.66,-7.38,0.36,0.92,0.06,6625,2019-04-03 15:51:37:328
-12.46,0.8,2.12,-12.17,-0.06,-6.35,-0.17,0.41,-0.02,6630,2019-04-03 15:51:37:333
-12.46,0.8,2.12,-12.17,-0.06,-6.35,-0.17,0.41,-0.02,6635,2019-04-03 15:51:37:338
-12.46,0.8,2.12,-12.17,-0.06,-6.35,-0.17,0.41,-0.02,6640,2019-04-03 15:51:37:343
5.96,-5.12,18.13,5.07,-5.31,8.94,0.02,-0.78,-0.26,6646,2019-04-03 15:51:37:349
5.96,-5.12,18.13,5.07,-5.31,8.94,0.02,-0.78,-0.26,6650,2019-04-03 15:51:37:353
5.96,-5.12,18.13,5.07,-5.31,8.94,0.02,-0.78,-0.26,6655,2019-04-03 15:51:37:358
5.96,-5.12,18.13,5.07,-5.31,8.94,0.02,-0.78,-0.26,6660,2019-04-03 15:51:37:363
3.65,2.8,4.85,3.63,2.66,-3.78,0.38,0.06,-0.14,6665,2019-04-03 15:51:37:368
3.65,2.8,4.85,3.63,2.66,-3.78,0.38,0.06,-0.14,6670,2019-04-03 15:51:37:373
3.65,2.8,4.85,3.63,2.66,-3.78,0.38,0.06,-0.14,6676,2019-04-03 15:51:37:379
3.65,2.8,4.85,3.63,2.66,-3.78,0.38,0.06,-0.14,6680,2019-04-03 15:51:37:383
3.65,2.8,4.85,3.63,2.66,-3.78,0.38,0.06,-0.14,6685,2019-04-03 15:51:37:388
3.65,2.8,4.85,3.63,2.66,-3.78,0.38,0.06,-0.14,6690,2019-04-03 15:51:37:393
-0.81,3.91,18.55,-1.27,5.23,10.84,0.39,0.39,-0.15,6695,2019-04-03 15:51:37:398
-0.81,3.91,18.55,-1.27,5.23,10.84,0.39,0.39,-0.15,6700,2019-04-03 15:51:37:403
-0.81,3.91,18.55,-1.27,5.23,10.84,0.39,0.39,-0.15,6706,2019-04-03 15:51:37:409
-0.81,3.91,18.55,-1.27,5.23,10.84,0.39,0.39,-0.15,6710,2019-04-03 15:51:37:413
-0.81,3.91,18.55,-1.27,5.23,10.84,0.39,0.39,-0.15,6716,2019-04-03 15:51:37:419
-0.81,3.91,18.55,-1.27,5.23,10.84,0.39,0.39,-0.15,6720,2019-04-03 15:51:37:423
-15.37,9.81,5.94,-15.46,10.54,-2.59,0.27,0.66,0.02,6737,2019-04-03 15:51:37:440
-15.37,9.81,5.94,-15.46,10.54,-2.59,0.27,0.66,0.02,6737,2019-04-03 15:51:37:440
-15.37,9.81,5.94,-15.46,10.54,-2.59,0.27,0.66,0.02,6738,2019-04-03 15:51:37:441
6.65,3.29,2.55,5.2,3.13,-5.37,-0.33,-1.02,-0.21,6751,2019-04-03 15:51:37:454
6.65,3.29,2.55,5.2,3.13,-5.37,-0.33,-1.02,-0.21,6752,2019-04-03 15:51:37:455
6.65,3.29,2.55,5.2,3.13,-5.37,-0.33,-1.02,-0.21,6754,2019-04-03 15:51:37:457
6.65,3.29,2.55,5.2,3.13,-5.37,-0.33,-1.02,-0.21,6755,2019-04-03 15:51:37:458
6.65,3.29,2.55,5.2,3.13,-5.37,-0.33,-1.02,-0.21,6760,2019-04-03 15:51:37:463
6.65,3.29,2.55,5.2,3.13,-5.37,-0.33,-1.02,-0.21,6765,2019-04-03 15:51:37:468
-2.28,-0.85,2.08,-2.76,-1.53,-6.38,-0.26,0.9,0.35,6771,2019-04-03 15:51:37:474
-2.28,-0.85,2.08,-2.76,-1.53,-6.38,-0.26,0.9,0.35,6776,2019-04-03 15:51:37:479
-2.28,-0.85,2.08,-2.76,-1.53,-6.38,-0.26,0.9,0.35,6779,2019-04-03 15:51:37:482
-2.28,-0.85,2.08,-2.76,-1.53,-6.38,-0.26,0.9,0.35,6787,2019-04-03 15:51:37:490
-2.28,-0.85,2.08,-2.76,-1.53,-6.38,-0.26,0.9,0.35,6790,2019-04-03 15:51:37:493
-19.87,-6.95,-9.75,-20.69,-6.87,-17.3,-0.17,0.54,0.37,6795,2019-04-03 15:51:37:498
-19.87,-6.95,-9.75,-20.69,-6.87,-17.3,-0.17,0.54,0.37,6800,2019-04-03 15:51:37:503
-19.87,-6.95,-9.75,-20.69,-6.87,-17.3,-0.17,0.54,0.37,6806,2019-04-03 15:51:37:509
-19.87,-6.95,-9.75,-20.69,-6.87,-17.3,-0.17,0.54,0.37,6810,2019-04-03 15:51:37:513
-19.87,-6.95,-9.75,-20.69,-6.87,-17.3,-0.17,0.54,0.37,6815,2019-04-03 15:51:37:518
-19.87,-6.95,-9.75,-20.69,-6.87,-17.3,-0.17,0.54,0.37,6820,2019-04-03 15:51:37:523
3.28,-1.37,10.61,1.97,-0.98,3.05,0.1,-1.07,-0.14,6825,2019-04-03 15:51:37:528
3.28,-1.37,10.61,1.97,-0.98,3.05,0.1,-1.07,-0.14,6833,2019-04-03 15:51:37:536
7.28,5.45,15.73,6.8,5.55,8.71,0.17,-0.27,-0.05,6834,2019-04-03 15:51:37:537
7.28,5.45,15.73,6.8,5.55,8.71,0.17,-0.27,-0.05,6840,2019-04-03 15:51:37:543
7.28,5.45,15.73,6.8,5.55,8.71,0.17,-0.27,-0.05,6846,2019-04-03 15:51:37:549
7.28,5.45,15.73,6.8,5.55,8.71,0.17,-0.27,-0.05,6849,2019-04-03 15:51:37:552
7.28,5.45,15.73,6.8,5.55,8.71,0.17,-0.27,-0.05,6855,2019-04-03 15:51:37:558
7.28,5.45,15.73,6.8,5.55,8.71,0.17,-0.27,-0.05,6860,2019-04-03 15:51:37:563
4.76,-2.1,9.94,4.02,-1.9,2.76,-0.3,0.32,0.06,6866,2019-04-03 15:51:37:569
4.76,-2.1,9.94,4.02,-1.9,2.76,-0.3,0.32,0.06,6872,2019-04-03 15:51:37:575
4.76,-2.1,9.94,4.02,-1.9,2.76,-0.3,0.32,0.06,6875,2019-04-03 15:51:37:578
4.76,-2.1,9.94,4.02,-1.9,2.76,-0.3,0.32,0.06,6880,2019-04-03 15:51:37:583
-3.47,6.72,2.43,-3.87,5.43,-4.49,0.02,0.49,0.15,6888,2019-04-03 15:51:37:591
-3.47,6.72,2.43,-3.87,5.43,-4.49,0.02,0.49,0.15,6890,2019-04-03 15:51:37:593
-3.47,6.72,2.43,-3.87,5.43,-4.49,0.02,0.49,0.15,6897,2019-04-03 15:51:37:600
-3.47,6.72,2.43,-3.87,5.43,-4.49,0.02,0.49,0.15,6900,2019-04-03 15:51:37:603
-11.67,-0.61,9.39,-12.42,-1.29,2.39,-0.13,0.03,0.05,6904,2019-04-03 15:51:37:607
-11.67,-0.61,9.39,-12.42,-1.29,2.39,-0.08,-0.78,-0.09,6913,2019-04-03 15:51:37:616
-11.67,-0.61,9.39,-12.42,-1.29,2.39,-0.08,-0.78,-0.09,6915,2019-04-03 15:51:37:618
-8.44,0.4,9.65,-8.71,0.46,2.39,-0.08,-0.78,-0.09,6920,2019-04-03 15:51:37:623
-8.44,0.4,9.65,-8.71,0.46,2.39,-0.08,-0.78,-0.09,6925,2019-04-03 15:51:37:628
-8.44,0.4,9.65,-8.71,0.46,2.39,-0.08,-0.78,-0.09,6931,2019-04-03 15:51:37:634
3.75,4.18,12.92,3.62,4.18,5.14,0.09,-0.07,0.05,6936,2019-04-03 15:51:37:639
3.75,4.18,12.92,3.62,4.18,5.14,0.09,-0.07,0.05,6940,2019-04-03 15:51:37:643
3.75,4.18,12.92,3.62,4.18,5.14,0.09,-0.07,0.05,6945,2019-04-03 15:51:37:648
0.93,-4.39,10.25,1.11,-3.83,2.45,-0.21,0.29,0.03,6952,2019-04-03 15:51:37:655
0.93,-4.39,10.25,1.11,-3.83,2.45,-0.21,0.29,0.03,6955,2019-04-03 15:51:37:658
0.93,-4.39,10.25,1.11,-3.83,2.45,-0.21,0.29,0.03,6960,2019-04-03 15:51:37:663
0.93,-4.39,10.25,1.11,-3.83,2.45,-0.21,0.29,0.03,6966,2019-04-03 15:51:37:669
0.93,-4.39,10.25,1.11,-3.83,2.45,-0.21,0.29,0.03,6970,2019-04-03 15:51:37:673
0.93,-4.39,10.25,1.11,-3.83,2.45,-0.21,0.29,0.03,6976,2019-04-03 15:51:37:679
0.93,-4.39,10.25,1.11,-3.83,2.45,-0.21,0.29,0.03,6981,2019-04-03 15:51:37:684
-8.45,-0.6,4.33,-8.14,-0.16,-3.56,-0.19,0.45,0.0,6985,2019-04-03 15:51:37:688
-8.45,-0.6,4.33,-8.14,-0.16,-3.56,-0.19,0.45,0.0,6990,2019-04-03 15:51:37:693
-8.45,-0.6,4.33,-8.14,-0.16,-3.56,-0.19,0.45,0.0,6995,2019-04-03 15:51:37:698
-8.45,-0.6,4.33,-8.14,-0.16,-3.56,-0.19,0.45,0.0,7001,2019-04-03 15:51:37:704
-6.12,1.92,15.2,-6.29,1.82,4.5,-0.25,-0.29,-0.16,7004,2019-04-03 15:51:37:707
-6.12,1.92,15.2,-6.29,1.82,4.5,-0.25,-0.29,-0.16,7010,2019-04-03 15:51:37:713
-6.12,1.92,15.2,-6.29,1.82,4.5,-0.25,-0.29,-0.16,7015,2019-04-03 15:51:37:718
-6.12,1.92,15.2,-6.29,1.82,4.5,-0.25,-0.29,-0.16,7020,2019-04-03 15:51:37:723
-6.12,1.92,15.2,-11.22,-1.39,-4.75,-0.29,0.4,-0.03,7025,2019-04-03 15:51:37:728
-6.12,1.92,15.2,-11.22,-1.39,-4.75,-0.29,0.4,-0.03,7030,2019-04-03 15:51:37:733
-6.12,1.92,15.2,-11.22,-1.39,-4.75,-0.29,0.4,-0.03,7036,2019-04-03 15:51:37:739
-6.12,1.92,15.2,-11.22,-1.39,-4.75,-0.29,0.4,-0.03,7040,2019-04-03 15:51:37:743
0.18,1.04,18.84,0.68,0.29,6.69,0.1,0.49,-0.06,7045,2019-04-03 15:51:37:748
0.18,1.04,18.84,0.68,0.29,6.69,0.1,0.49,-0.06,7050,2019-04-03 15:51:37:753
0.18,1.04,18.84,0.68,0.29,6.69,0.1,0.49,-0.06,7060,2019-04-03 15:51:37:763
0.18,1.04,18.84,0.68,0.29,6.69,0.1,0.49,-0.06,7061,2019-04-03 15:51:37:764
-10.41,-7.41,-1.21,-9.69,-7.48,-12.92,-0.35,0.5,-0.1,7066,2019-04-03 15:51:37:769
-10.41,-7.41,-1.21,-9.69,-7.48,-12.92,-0.35,0.5,-0.1,7072,2019-04-03 15:51:37:775
-10.41,-7.41,-1.21,-9.69,-7.48,-12.92,-0.35,0.5,-0.1,7075,2019-04-03 15:51:37:778
-10.41,-7.41,-1.21,-9.69,-7.48,-12.92,-0.35,0.5,-0.1,7080,2019-04-03 15:51:37:783
-10.41,-7.41,-1.21,-9.69,-7.48,-12.92,-0.35,0.5,-0.1,7085,2019-04-03 15:51:37:788
-10.41,-7.41,-1.21,-9.69,-7.48,-12.92,-0.35,0.5,-0.1,7092,2019-04-03 15:51:37:795
-10.41,-7.41,-1.21,-9.69,-7.48,-12.92,-0.35,0.5,-0.1,7095,2019-04-03 15:51:37:798
-7.47,0.49,-3.39,-6.93,0.55,-14.21,0.2,0.52,-0.09,7101,2019-04-03 15:51:37:804
-7.47,0.49,-3.39,-6.93,0.55,-14.21,0.2,0.52,-0.09,7105,2019-04-03 15:51:37:808
-7.47,0.49,-3.39,-6.93,0.55,-14.21,0.2,0.52,-0.09,7110,2019-04-03 15:51:37:813
-7.47,0.49,-3.39,-6.93,0.55,-14.21,0.2,0.52,-0.09,7115,2019-04-03 15:51:37:818
-7.47,0.49,-3.39,-6.93,0.55,-14.21,0.2,0.52,-0.09,7120,2019-04-03 15:51:37:823
-7.47,0.49,-3.39,-6.93,0.55,-14.21,0.2,0.52,-0.09,7125,2019-04-03 15:51:37:828
-7.47,0.49,-3.39,-6.93,0.55,-14.21,0.2,0.52,-0.09,7131,2019-04-03 15:51:37:834
5.92,3.93,26.18,5.81,3.65,14.78,0.24,-0.52,-0.18,7135,2019-04-03 15:51:37:838
5.92,3.93,26.18,5.81,3.65,14.78,0.24,-0.52,-0.18,7140,2019-04-03 15:51:37:843
5.92,3.93,26.18,5.81,3.65,14.78,0.24,-0.52,-0.18,7145,2019-04-03 15:51:37:848
5.92,3.93,26.18,5.81,3.65,14.78,0.24,-0.52,-0.18,7150,2019-04-03 15:51:37:853
1.09,8.7,5.6,0.92,7.7,-5.68,0.16,0.32,0.04,7155,2019-04-03 15:51:37:858
1.09,8.7,5.6,0.92,7.7,-5.68,0.16,0.32,0.04,7161,2019-04-03 15:51:37:864
1.09,8.7,5.6,0.92,7.7,-5.68,0.16,0.32,0.04,7164,2019-04-03 15:51:37:867
1.09,8.7,5.6,0.92,7.7,-5.68,0.16,0.32,0.04,7170,2019-04-03 15:51:37:873
1.09,8.7,5.6,2.15,5.94,-0.76,0.16,0.32,0.04,7175,2019-04-03 15:51:37:878
1.09,8.7,5.6,2.15,5.94,-0.76,0.16,0.32,0.04,7181,2019-04-03 15:51:37:884
2.28,6.89,26.62,2.15,5.94,-0.76,0.01,-0.68,-0.11,7185,2019-04-03 15:51:37:888
2.28,6.89,26.62,2.15,5.94,-0.76,0.01,-0.68,-0.11,7191,2019-04-03 15:51:37:894
-8.07,0.78,0.45,2.15,5.94,-0.76,0.01,-0.68,-0.11,7195,2019-04-03 15:51:37:898
-8.07,0.78,0.45,-8.35,-0.12,-10.12,-0.71,0.94,0.32,7201,2019-04-03 15:51:37:904
-8.07,0.78,0.45,-8.35,-0.12,-10.12,-0.71,0.94,0.32,7205,2019-04-03 15:51:37:908
-8.07,0.78,0.45,-8.35,-0.12,-10.12,-0.71,0.94,0.32,7213,2019-04-03 15:51:37:916
-8.07,0.78,0.45,-8.35,-0.12,-10.12,-0.71,0.94,0.32,7215,2019-04-03 15:51:37:918
21.6,1.1,23.51,20.71,0.24,13.15,0.77,-0.6,-0.26,7221,2019-04-03 15:51:37:924
21.6,1.1,23.51,20.71,0.24,13.15,0.77,-0.6,-0.26,7225,2019-04-03 15:51:37:928
21.6,1.1,23.51,20.71,0.24,13.15,0.77,-0.6,-0.26,7230,2019-04-03 15:51:37:933
21.6,1.1,23.51,20.71,0.24,13.15,0.77,-0.6,-0.26,7235,2019-04-03 15:51:37:938
3.3,4.43,4.68,2.41,3.98,-4.33,-0.37,1.15,0.18,7243,2019-04-03 15:51:37:946
3.3,4.43,4.68,2.41,3.98,-4.33,-0.37,1.15,0.18,7245,2019-04-03 15:51:37:948
3.3,4.43,4.68,2.41,3.98,-4.33,-0.37,1.15,0.18,7250,2019-04-03 15:51:37:953
3.3,4.43,4.68,2.41,3.98,-4.33,-0.37,1.15,0.18,7255,2019-04-03 15:51:37:958
3.3,4.43,4.68,2.41,3.98,-4.33,-0.37,1.15,0.18,7260,2019-04-03 15:51:37:963
3.3,4.43,4.68,2.41,3.98,-4.33,-0.37,1.15,0.18,7266,2019-04-03 15:51:37:969
3.3,4.43,4.68,2.41,3.98,-4.33,-0.37,1.15,0.18,7270,2019-04-03 15:51:37:973
-12.83,12.38,6.65,-13.37,10.71,-2.18,0.74,-0.3,-0.11,7277,2019-04-03 15:51:37:980
-12.83,12.38,6.65,-13.37,10.71,-2.18,0.74,-0.3,-0.11,7280,2019-04-03 15:51:37:983
-12.83,12.38,6.65,-13.37,10.71,-2.18,0.74,-0.3,-0.11,7285,2019-04-03 15:51:37:988
-12.83,12.38,6.65,-13.37,10.71,-2.18,0.74,-0.3,-0.11,7290,2019-04-03 15:51:37:993
13.19,-3.41,19.45,11.41,-5.0,8.48,-0.96,-1.0,-0.23,7296,2019-04-03 15:51:37:999
13.19,-3.41,19.45,11.41,-5.0,8.48,-0.96,-1.0,-0.23,7299,2019-04-03 15:51:38:002
1.93,-7.13,3.74,7.17,-1.64,-2.3,0.59,0.65,0.16,7305,2019-04-03 15:51:38:008
1.93,-7.13,3.74,7.17,-1.64,-2.3,0.59,0.65,0.16,7310,2019-04-03 15:51:38:013
1.93,-7.13,3.74,7.17,-1.64,-2.3,0.59,0.65,0.16,7318,2019-04-03 15:51:38:021
1.93,-7.13,3.74,7.17,-1.64,-2.3,0.59,0.65,0.16,7326,2019-04-03 15:51:38:029
1.93,-7.13,3.74,7.17,-1.64,-2.3,0.59,0.65,0.16,7327,2019-04-03 15:51:38:030
1.93,-7.13,3.74,7.17,-1.64,-2.3,0.59,0.65,0.16,7331,2019-04-03 15:51:38:034
-2.53,5.49,1.61,-3.17,4.02,-6.07,-0.16,0.41,0.05,7335,2019-04-03 15:51:38:038
-2.53,5.49,1.61,-3.17,4.02,-6.07,-0.16,0.41,0.05,7342,2019-04-03 15:51:38:045
-2.53,5.49,1.61,-3.17,4.02,-6.07,-0.16,0.41,0.05,7345,2019-04-03 15:51:38:048
-2.53,5.49,1.61,-3.17,4.02,-6.07,-0.16,0.41,0.05,7350,2019-04-03 15:51:38:053
-6.94,-14.32,13.19,-7.49,-14.41,4.93,-0.58,-0.1,0.0,7355,2019-04-03 15:51:38:058
-6.94,-14.32,13.19,-7.49,-14.41,4.93,-0.58,-0.1,0.0,7360,2019-04-03 15:51:38:063
-6.94,-14.32,13.19,-7.49,-14.41,4.93,-0.58,-0.1,0.0,7364,2019-04-03 15:51:38:067
-6.94,-14.32,13.19,-7.49,-14.41,4.93,-0.58,-0.1,0.0,7370,2019-04-03 15:51:38:073
12.25,-9.66,-4.68,11.08,-9.36,-11.67,0.73,-0.56,-0.21,7376,2019-04-03 15:51:38:079
12.25,-9.66,-4.68,11.08,-9.36,-11.67,0.73,-0.56,-0.21,7381,2019-04-03 15:51:38:084
12.25,-9.66,-4.68,11.08,-9.36,-11.67,0.73,-0.56,-0.21,7385,2019-04-03 15:51:38:088
12.25,-9.66,-4.68,11.08,-9.36,-11.67,0.73,-0.56,-0.21,7390,2019-04-03 15:51:38:093
2.08,4.58,3.71,1.97,6.0,-1.76,-0.06,1.01,0.1,7394,2019-04-03 15:51:38:097
2.08,4.58,3.71,1.97,6.0,-1.76,-0.06,1.01,0.1,7400,2019-04-03 15:51:38:103
-7.11,-1.03,12.54,-6.78,0.14,7.28,-0.21,0.18,-0.09,7407,2019-04-03 15:51:38:110
-7.11,-1.03,12.54,-6.78,0.14,7.28,-0.21,0.18,-0.09,7409,2019-04-03 15:51:38:112
-7.11,-1.03,12.54,-6.78,0.14,7.28,-0.21,0.18,-0.09,7415,2019-04-03 15:51:38:118
-7.11,-1.03,12.54,-6.78,0.14,7.28,-0.21,0.18,-0.09,7420,2019-04-03 15:51:38:123
-5.5,2.24,2.01,-5.57,2.7,-4.12,0.49,-0.31,-0.16,7427,2019-04-03 15:51:38:130
-5.5,2.24,2.01,-5.57,2.7,-4.12,0.49,-0.31,-0.16,7430,2019-04-03 15:51:38:133
-5.5,2.24,2.01,-5.57,2.7,-4.12,0.49,-0.31,-0.16,7435,2019-04-03 15:51:38:138
-5.5,2.24,2.01,-5.57,2.7,-4.12,0.49,-0.31,-0.16,7440,2019-04-03 15:51:38:143
9.36,0.96,10.52,8.77,1.67,4.28,-0.27,-0.35,-0.28,7447,2019-04-03 15:51:38:150
9.36,0.96,10.52,8.77,1.67,4.28,-0.27,-0.35,-0.28,7450,2019-04-03 15:51:38:153
9.36,0.96,10.52,8.77,1.67,4.28,-0.27,-0.35,-0.28,7455,2019-04-03 15:51:38:158
9.36,0.96,10.52,8.77,1.67,4.28,-0.27,-0.35,-0.28,7460,2019-04-03 15:51:38:163
-4.03,-9.17,20.29,-4.27,-7.7,12.87,0.19,0.69,-0.02,7474,2019-04-03 15:51:38:177
-4.03,-9.17,20.29,-4.27,-7.7,12.87,0.19,0.69,-0.02,7475,2019-04-03 15:51:38:178
-4.03,-9.17,20.29,-4.27,-7.7,12.87,0.19,0.69,-0.02,7476,2019-04-03 15:51:38:179
-4.03,-9.17,20.29,-4.27,-7.7,12.87,0.19,0.69,-0.02,7480,2019-04-03 15:51:38:183
-15.69,1.7,-7.12,-15.35,3.41,-13.01,-0.26,-0.3,-0.16,7487,2019-04-03 15:51:38:190
-15.69,1.7,-7.12,-15.35,3.41,-13.01,-0.26,-0.3,-0.16,7490,2019-04-03 15:51:38:193
-15.69,1.7,-7.12,-15.35,3.41,-13.01,-0.26,-0.3,-0.16,7495,2019-04-03 15:51:38:198
-15.69,1.7,-7.12,-15.35,3.41,-13.01,-0.26,-0.3,-0.16,7500,2019-04-03 15:51:38:203
-15.69,1.7,-7.12,-15.35,3.41,-13.01,-0.26,-0.3,-0.16,7504,2019-04-03 15:51:38:207
9.94,-5.25,16.14,9.41,-2.88,9.06,-0.15,-1.12,-0.36,7510,2019-04-03 15:51:38:213
9.94,-5.25,16.14,9.41,-2.88,9.06,-0.15,-1.12,-0.36,7515,2019-04-03 15:51:38:218
9.94,-5.25,16.14,9.41,-2.88,9.06,-0.15,-1.12,-0.36,7520,2019-04-03 15:51:38:223
9.36,3.51,12.35,8.95,5.69,4.58,0.32,0.46,-0.08,7526,2019-04-03 15:51:38:229
9.36,3.51,12.35,8.95,5.69,4.58,0.32,0.46,-0.08,7530,2019-04-03 15:51:38:233
9.36,3.51,12.35,8.95,5.69,4.58,0.32,0.46,-0.08,7534,2019-04-03 15:51:38:237
9.36,3.51,12.35,8.95,5.69,4.58,0.32,0.46,-0.08,7540,2019-04-03 15:51:38:243
-6.6,-8.85,6.88,-6.78,-6.61,-0.89,-0.61,0.66,0.04,7545,2019-04-03 15:51:38:248
-6.6,-8.85,6.88,-6.78,-6.61,-0.89,-0.61,0.66,0.04,7551,2019-04-03 15:51:38:254
-6.6,-8.85,6.88,-6.78,-6.61,-0.89,-0.61,0.66,0.04,7555,2019-04-03 15:51:38:258
-6.6,-8.85,6.88,-6.78,-6.61,-0.89,-0.61,0.66,0.04,7560,2019-04-03 15:51:38:263
-9.91,-0.52,3.54,-6.78,-6.61,-0.89,0.25,-0.4,-0.02,7565,2019-04-03 15:51:38:268
-9.91,-0.52,3.54,-9.76,0.63,-4.59,0.25,-0.4,-0.02,7570,2019-04-03 15:51:38:273
-9.91,-0.52,3.54,-9.76,0.63,-4.59,0.25,-0.4,-0.02,7576,2019-04-03 15:51:38:279
-9.91,-0.52,3.54,-9.76,0.63,-4.59,0.25,-0.4,-0.02,7580,2019-04-03 15:51:38:283
1.34,20.19,3.19,0.8,19.84,-5.74,0.41,-0.62,-0.01,7585,2019-04-03 15:51:38:288
1.34,20.19,3.19,0.8,19.84,-5.74,0.41,-0.62,-0.01,7590,2019-04-03 15:51:38:293
1.34,20.19,3.19,0.8,19.84,-5.74,0.41,-0.62,-0.01,7595,2019-04-03 15:51:38:298
1.34,20.19,3.19,0.8,19.84,-5.74,0.41,-0.62,-0.01,7601,2019-04-03 15:51:38:304
10.61,-4.29,30.76,9.93,-5.0,20.68,0.0,-0.2,0.22,7608,2019-04-03 15:51:38:311
10.61,-4.29,30.76,9.93,-5.0,20.68,0.0,-0.2,0.22,7613,2019-04-03 15:51:38:316
10.61,-4.29,30.76,9.93,-5.0,20.68,0.0,-0.2,0.22,7615,2019-04-03 15:51:38:318
10.61,-4.29,30.76,9.93,-5.0,20.68,0.0,-0.2,0.22,7620,2019-04-03 15:51:38:323
-2.8,-4.79,10.08,-3.11,-4.67,-0.14,0.33,0.68,0.43,7625,2019-04-03 15:51:38:328
-2.8,-4.79,10.08,-3.11,-4.67,-0.14,0.33,0.68,0.43,7630,2019-04-03 15:51:38:333
-2.8,-4.79,10.08,-3.11,-4.67,-0.14,0.33,0.68,0.43,7638,2019-04-03 15:51:38:341
-2.8,-4.79,10.08,-3.11,-4.67,-0.14,0.33,0.68,0.43,7640,2019-04-03 15:51:38:343
1.22,-6.55,13.15,1.17,-6.0,2.77,0.39,-0.25,0.15,7647,2019-04-03 15:51:38:350
1.22,-6.55,13.15,1.17,-6.0,2.77,0.39,-0.25,0.15,7650,2019-04-03 15:51:38:353
1.22,-6.55,13.15,1.17,-6.0,2.77,0.39,-0.25,0.15,7655,2019-04-03 15:51:38:358
1.22,-6.55,13.15,1.17,-6.0,2.77,0.39,-0.25,0.15,7660,2019-04-03 15:51:38:363
1.66,-3.87,15.08,1.48,-3.21,4.76,0.05,0.22,0.09,7665,2019-04-03 15:51:38:368
1.66,-3.87,15.08,1.48,-3.21,4.76,0.05,0.22,0.09,7670,2019-04-03 15:51:38:373
1.66,-3.87,15.08,1.48,-3.21,4.76,0.05,0.22,0.09,7678,2019-04-03 15:51:38:381
1.66,-3.87,15.08,1.48,-3.21,4.76,0.05,0.22,0.09,7680,2019-04-03 15:51:38:383
-2.56,-1.27,7.5,-2.91,-0.85,-3.29,-0.04,0.15,0.15,7685,2019-04-03 15:51:38:388
-2.56,-1.27,7.5,-2.91,-0.85,-3.29,-0.04,0.15,0.15,7690,2019-04-03 15:51:38:393
-2.56,-1.27,7.5,-2.91,-0.85,-3.29,-0.04,0.15,0.15,7696,2019-04-03 15:51:38:399
-2.56,-1.27,7.5,-2.91,-0.85,-3.29,-0.04,0.15,0.15,7700,2019-04-03 15:51:38:403
-5.16,-0.81,6.49,-4.89,-0.55,-4.18,0.2,-0.05,0.21,7705,2019-04-03 15:51:38:408
-5.16,-0.81,6.49,-4.89,-0.55,-4.18,0.2,-0.05,0.21,7710,2019-04-03 15:51:38:413
-5.16,-0.81,6.49,-4.89,-0.55,-4.18,0.2,-0.05,0.21,7715,2019-04-03 15:51:38:418
-5.16,-0.81,6.49,-4.89,-0.55,-4.18,0.2,-0.05,0.21,7720,2019-04-03 15:51:38:423
2.15,0.42,10.18,2.11,1.01,-0.75,-0.05,-0.22,0.08,7725,2019-04-03 15:51:38:428
2.15,0.42,10.18,2.11,1.01,-0.75,-0.05,-0.22,0.08,7731,2019-04-03 15:51:38:434
2.15,0.42,10.18,2.11,1.01,-0.75,-0.05,-0.22,0.08,7740,2019-04-03 15:51:38:443
2.15,0.42,10.18,2.11,1.01,-0.75,-0.05,-0.22,0.08,7741,2019-04-03 15:51:38:444
