ACCELEROMETER X (m/s²),ACCELEROMETER Y (m/s²),ACCELEROMETER Z (m/s²),LINEAR ACCELERATION X (m/s²),LINEAR ACCELERATION Y (m/s²),LINEAR ACCELERATION Z (m/s²),GYROSCOPE X (rad/s),GYROSCOPE Y (rad/s),GYROSCOPE Z (rad/s),Time since start in ms ,YYYY-MO-DD HH-MI-SS_SSS
0.57,0.34,9.93,0.14,0.1,-0.02,0.01,0.0,0.03,5,2019-03-25 16:50:09:722
0.48,0.5,9.92,0.03,0.25,-0.04,0.0,0.0,0.02,10,2019-03-25 16:50:09:727
0.48,0.5,9.92,0.03,0.25,-0.04,0.0,0.0,0.02,15,2019-03-25 16:50:09:732
0.48,0.5,9.92,0.03,0.25,-0.04,0.0,0.0,0.02,20,2019-03-25 16:50:09:737
0.48,0.5,9.92,0.03,0.25,-0.04,0.0,0.0,0.02,25,2019-03-25 16:50:09:742
0.47,0.6,10.02,0.01,0.32,0.05,0.01,0.0,0.02,31,2019-03-25 16:50:09:748
0.47,0.6,10.02,0.01,0.32,0.05,0.01,0.0,0.02,35,2019-03-25 16:50:09:752
0.65,0.56,9.95,0.24,0.25,0.06,0.01,0.0,0.03,40,2019-03-25 16:50:09:757
0.65,0.56,9.95,0.24,0.25,0.06,0.01,0.0,0.03,45,2019-03-25 16:50:09:762
0.65,0.56,9.95,0.24,0.25,0.06,0.01,0.0,0.03,51,2019-03-25 16:50:09:768
0.65,0.56,9.95,0.24,0.25,0.06,0.01,0.0,0.03,54,2019-03-25 16:50:09:771
0.65,0.56,9.95,0.24,0.25,0.06,0.01,0.0,0.03,61,2019-03-25 16:50:09:778
0.65,0.56,9.95,0.24,0.25,0.06,0.01,0.0,0.03,64,2019-03-25 16:50:09:781
0.65,0.56,9.95,0.24,0.25,0.06,0.01,0.0,0.03,70,2019-03-25 16:50:09:787
0.72,0.16,9.7,0.22,-0.17,-0.25,0.01,0.0,0.03,75,2019-03-25 16:50:09:792
0.72,0.16,9.7,0.22,-0.17,-0.25,0.01,0.0,0.03,80,2019-03-25 16:50:09:797
0.72,0.16,9.7,0.22,-0.17,-0.25,0.01,0.0,0.03,85,2019-03-25 16:50:09:802
0.72,0.16,9.7,0.22,-0.17,-0.25,0.01,0.0,0.03,90,2019-03-25 16:50:09:807
0.72,0.16,9.7,0.22,-0.17,-0.25,0.01,0.0,0.03,95,2019-03-25 16:50:09:812
0.72,0.16,9.7,0.22,-0.17,-0.25,0.01,0.0,0.03,103,2019-03-25 16:50:09:820
0.72,0.16,9.7,0.22,-0.17,-0.25,0.01,0.0,0.03,105,2019-03-25 16:50:09:822
-0.22,1.54,9.96,-0.69,1.09,0.0,0.03,0.03,0.09,110,2019-03-25 16:50:09:827
-0.22,1.54,9.96,-0.69,1.09,0.0,0.03,0.03,0.09,115,2019-03-25 16:50:09:832
-0.22,1.54,9.96,-0.69,1.09,0.0,0.03,0.03,0.09,120,2019-03-25 16:50:09:837
-0.22,1.54,9.96,-0.69,1.09,0.0,0.03,0.03,0.09,125,2019-03-25 16:50:09:842
0.41,2.31,9.91,-0.03,1.66,-0.01,0.02,0.01,0.08,130,2019-03-25 16:50:09:847
0.41,2.31,9.91,-0.03,1.66,-0.01,0.02,0.01,0.08,135,2019-03-25 16:50:09:852
0.41,2.31,9.91,-0.03,1.66,-0.01,0.02,0.01,0.08,140,2019-03-25 16:50:09:857
0.3,1.05,10.04,-0.14,0.29,0.11,0.0,0.0,0.0,144,2019-03-25 16:50:09:861
0.3,1.05,10.04,-0.14,0.29,0.11,0.0,0.0,0.0,150,2019-03-25 16:50:09:867
0.3,1.05,10.04,-0.14,0.29,0.11,0.0,0.0,0.0,155,2019-03-25 16:50:09:872
0.15,0.45,9.92,-0.25,-0.34,0.0,0.0,0.0,0.0,160,2019-03-25 16:50:09:877
0.15,0.45,9.92,-0.25,-0.34,0.0,0.0,0.0,0.0,165,2019-03-25 16:50:09:882
0.15,0.45,9.92,-0.25,-0.34,0.0,0.0,0.0,0.0,169,2019-03-25 16:50:09:886
0.15,0.45,9.92,-0.25,-0.34,0.0,0.0,0.0,0.0,175,2019-03-25 16:50:09:892
0.1,0.49,10.16,-0.26,-0.32,0.22,0.0,0.0,0.01,181,2019-03-25 16:50:09:898
0.1,0.49,10.16,-0.26,-0.32,0.22,0.0,0.0,0.01,185,2019-03-25 16:50:09:902
0.1,0.49,10.16,-0.26,-0.32,0.22,0.0,0.0,0.01,190,2019-03-25 16:50:09:907
0.1,0.49,10.16,-0.26,-0.32,0.22,0.0,0.0,0.01,195,2019-03-25 16:50:09:912
0.1,0.49,10.16,-0.26,-0.32,0.22,0.0,0.0,0.01,200,2019-03-25 16:50:09:917
0.1,0.49,10.16,-0.26,-0.32,0.22,0.0,0.0,0.01,205,2019-03-25 16:50:09:922
0.66,0.89,9.88,0.3,0.05,-0.05,0.01,0.0,0.04,210,2019-03-25 16:50:09:927
0.66,0.89,9.88,0.3,0.05,-0.05,0.01,0.0,0.04,215,2019-03-25 16:50:09:932
0.66,0.89,9.88,0.3,0.05,-0.05,0.01,0.0,0.04,220,2019-03-25 16:50:09:937
0.66,0.89,9.88,0.3,0.05,-0.05,0.01,0.0,0.04,225,2019-03-25 16:50:09:942
0.48,0.89,10.1,0.11,0.02,0.15,0.01,0.0,0.05,230,2019-03-25 16:50:09:947
0.48,0.89,10.1,0.11,0.02,0.15,0.01,0.0,0.05,236,2019-03-25 16:50:09:953
0.48,0.89,10.1,0.11,0.02,0.15,0.01,0.0,0.05,240,2019-03-25 16:50:09:957
0.59,0.8,10.11,0.23,-0.08,0.16,0.01,0.0,0.07,245,2019-03-25 16:50:09:962
0.1,0.59,10.2,-0.2,-0.32,0.22,0.01,0.0,0.06,266,2019-03-25 16:50:09:983
0.1,0.59,10.2,-0.2,-0.32,0.22,0.01,0.0,0.06,266,2019-03-25 16:50:09:983
0.1,0.59,10.2,-0.2,-0.32,0.22,0.01,0.0,0.06,267,2019-03-25 16:50:09:984
0.1,0.59,10.2,-0.2,-0.32,0.22,0.01,0.0,0.06,268,2019-03-25 16:50:09:985
0.1,0.59,10.2,-0.2,-0.32,0.22,0.01,0.0,0.06,270,2019-03-25 16:50:09:987
0.1,0.59,10.2,-0.2,-0.32,0.22,0.01,0.0,0.06,275,2019-03-25 16:50:09:992
0.1,0.59,10.2,-0.2,-0.32,0.22,0.01,0.0,0.06,279,2019-03-25 16:50:09:996
0.1,0.59,10.2,-0.2,-0.32,0.22,0.01,0.0,0.06,285,2019-03-25 16:50:10:002
0.1,0.59,10.2,-0.2,-0.32,0.22,0.01,0.0,0.06,290,2019-03-25 16:50:10:007
0.25,0.64,10.02,-0.02,-0.31,0.03,0.01,0.0,0.05,295,2019-03-25 16:50:10:012
0.25,0.64,10.02,-0.02,-0.31,0.03,0.01,0.0,0.05,300,2019-03-25 16:50:10:017
0.25,0.64,10.02,-0.02,-0.31,0.03,0.01,0.0,0.05,305,2019-03-25 16:50:10:022
0.44,0.7,9.88,0.1,-0.15,-0.1,0.01,0.0,0.04,310,2019-03-25 16:50:10:027
0.44,0.7,9.88,0.1,-0.15,-0.1,0.01,0.0,0.04,315,2019-03-25 16:50:10:032
0.44,0.7,9.88,0.1,-0.15,-0.1,0.01,0.0,0.04,319,2019-03-25 16:50:10:036
0.44,0.7,9.88,0.1,-0.15,-0.1,0.01,0.0,0.04,325,2019-03-25 16:50:10:042
0.6,0.69,9.9,0.24,-0.08,-0.08,0.01,0.0,0.04,330,2019-03-25 16:50:10:047
0.6,0.69,9.9,0.24,-0.08,-0.08,0.01,0.0,0.04,335,2019-03-25 16:50:10:052
0.6,0.69,9.9,0.24,-0.08,-0.08,0.01,0.0,0.04,340,2019-03-25 16:50:10:057
0.6,0.69,9.9,0.24,-0.08,-0.08,0.01,0.0,0.04,345,2019-03-25 16:50:10:062
0.6,0.69,9.9,0.24,-0.08,-0.08,0.01,0.0,0.04,350,2019-03-25 16:50:10:067
0.6,0.69,9.9,0.24,-0.08,-0.08,0.01,0.0,0.04,355,2019-03-25 16:50:10:072
0.55,0.82,9.86,0.19,0.09,-0.12,0.0,0.0,0.05,361,2019-03-25 16:50:10:078
0.55,0.82,9.86,0.19,0.09,-0.12,0.0,0.0,0.05,370,2019-03-25 16:50:10:087
0.55,0.82,9.86,0.19,0.09,-0.12,0.0,0.0,0.05,371,2019-03-25 16:50:10:088
0.55,0.82,9.86,0.19,0.09,-0.12,0.0,0.0,0.05,375,2019-03-25 16:50:10:092
0.46,1.41,9.57,0.03,0.57,-0.38,0.01,0.02,0.06,380,2019-03-25 16:50:10:097
0.46,1.41,9.57,0.03,0.57,-0.38,0.01,0.02,0.06,385,2019-03-25 16:50:10:102
0.46,1.41,9.57,0.03,0.57,-0.38,0.01,0.02,0.06,391,2019-03-25 16:50:10:108
0.46,1.41,9.57,0.03,0.57,-0.38,0.01,0.02,0.06,396,2019-03-25 16:50:10:113
0.46,1.41,9.57,0.03,0.57,-0.38,0.01,0.02,0.06,399,2019-03-25 16:50:10:116
0.46,1.41,9.57,0.03,0.57,-0.38,0.01,0.02,0.06,405,2019-03-25 16:50:10:122
0.64,1.72,10.27,0.2,0.8,0.28,0.02,0.02,0.06,410,2019-03-25 16:50:10:127
0.64,1.72,10.27,0.2,0.8,0.28,0.02,0.02,0.06,415,2019-03-25 16:50:10:132
0.64,1.72,10.27,0.2,0.8,0.28,0.02,0.02,0.06,420,2019-03-25 16:50:10:137
0.64,1.72,10.27,0.2,0.8,0.28,0.02,0.02,0.06,425,2019-03-25 16:50:10:142
0.27,1.23,9.87,-0.12,0.25,-0.1,0.01,0.02,0.03,430,2019-03-25 16:50:10:147
0.27,1.23,9.87,-0.12,0.25,-0.1,0.01,0.02,0.03,435,2019-03-25 16:50:10:152
0.19,1.16,10.54,-0.18,0.13,0.54,0.02,0.02,0.02,440,2019-03-25 16:50:10:157
0.19,1.16,10.54,-0.18,0.13,0.54,0.02,0.02,0.02,445,2019-03-25 16:50:10:162
0.19,1.16,10.54,-0.18,0.13,0.54,0.02,0.02,0.02,450,2019-03-25 16:50:10:167
0.19,1.16,10.54,-0.18,0.13,0.54,0.02,0.02,0.02,455,2019-03-25 16:50:10:172
0.19,1.16,10.54,-0.18,0.13,0.54,0.02,0.02,0.02,460,2019-03-25 16:50:10:177
0.19,1.16,10.54,-0.18,0.13,0.54,0.02,0.02,0.02,465,2019-03-25 16:50:10:182
0.19,1.16,10.54,-0.18,0.13,0.54,0.02,0.02,0.02,471,2019-03-25 16:50:10:188
0.5,1.0,9.66,0.11,-0.04,-0.31,0.02,0.02,0.03,476,2019-03-25 16:50:10:193
0.5,1.0,9.66,0.11,-0.04,-0.31,0.02,0.02,0.03,479,2019-03-25 16:50:10:196
0.5,1.0,9.66,0.11,-0.04,-0.31,0.02,0.02,0.03,486,2019-03-25 16:50:10:203
0.5,1.0,9.66,0.11,-0.04,-0.31,0.02,0.02,0.03,490,2019-03-25 16:50:10:207
0.5,1.0,9.66,0.11,-0.04,-0.31,0.02,0.02,0.03,495,2019-03-25 16:50:10:212
0.5,1.0,9.66,0.11,-0.04,-0.31,0.02,0.02,0.03,506,2019-03-25 16:50:10:223
0.36,1.1,9.63,-0.04,-0.03,-0.31,0.02,0.01,0.0,512,2019-03-25 16:50:10:229
0.36,1.1,9.63,-0.04,-0.03,-0.31,0.02,0.01,0.0,513,2019-03-25 16:50:10:230
0.36,1.1,9.63,-0.04,-0.03,-0.31,0.02,0.01,0.0,515,2019-03-25 16:50:10:232
0.36,1.1,9.63,-0.04,-0.03,-0.31,0.02,0.01,0.0,521,2019-03-25 16:50:10:238
0.36,1.1,9.63,-0.04,-0.03,-0.31,0.02,0.01,0.0,525,2019-03-25 16:50:10:242
0.12,1.85,10.07,-0.25,0.61,0.13,0.02,0.0,0.0,532,2019-03-25 16:50:10:249
0.12,1.85,10.07,-0.25,0.61,0.13,0.02,0.0,0.0,535,2019-03-25 16:50:10:252
0.12,1.85,10.07,-0.25,0.61,0.13,0.02,0.0,0.0,540,2019-03-25 16:50:10:257
0.41,1.5,9.72,0.05,0.19,-0.18,0.04,0.0,0.0,545,2019-03-25 16:50:10:262
0.41,1.5,9.72,0.05,0.19,-0.18,0.04,0.0,0.0,550,2019-03-25 16:50:10:267
0.41,1.5,9.72,0.05,0.19,-0.18,0.04,0.0,0.0,556,2019-03-25 16:50:10:273
0.41,1.5,9.72,0.05,0.19,-0.18,0.04,0.0,0.0,560,2019-03-25 16:50:10:277
0.41,1.5,9.72,0.05,0.19,-0.18,0.04,0.0,0.0,565,2019-03-25 16:50:10:282
0.41,1.5,9.72,0.05,0.19,-0.18,0.04,0.0,0.0,570,2019-03-25 16:50:10:287
0.16,1.46,9.89,-0.16,0.09,-0.01,0.03,0.0,0.0,575,2019-03-25 16:50:10:292
0.16,1.46,9.89,-0.16,0.09,-0.01,0.03,0.0,0.0,579,2019-03-25 16:50:10:296
0.16,1.46,9.89,-0.16,0.09,-0.01,0.03,0.0,0.0,585,2019-03-25 16:50:10:302
0.16,1.46,9.89,-0.16,0.09,-0.01,0.03,0.0,0.0,591,2019-03-25 16:50:10:308
0.16,1.46,9.89,-0.16,0.09,-0.01,0.03,0.0,0.0,596,2019-03-25 16:50:10:313
0.16,1.46,9.89,-0.16,0.09,-0.01,0.03,0.0,0.0,600,2019-03-25 16:50:10:317
0.16,1.46,9.89,-0.16,0.09,-0.01,0.03,0.0,0.0,605,2019-03-25 16:50:10:322
0.13,1.3,9.96,-0.17,-0.04,0.09,0.02,0.0,0.0,610,2019-03-25 16:50:10:327
0.13,1.3,9.96,-0.17,-0.04,0.09,0.02,0.0,0.0,615,2019-03-25 16:50:10:332
0.13,1.3,9.96,-0.17,-0.04,0.09,0.02,0.0,0.0,620,2019-03-25 16:50:10:337
0.17,1.42,10.39,-0.14,0.06,0.5,0.02,0.0,0.0,625,2019-03-25 16:50:10:342
0.17,1.42,10.39,-0.14,0.06,0.5,0.02,0.0,0.0,631,2019-03-25 16:50:10:348
0.17,1.42,10.39,-0.14,0.06,0.5,0.02,0.0,0.0,636,2019-03-25 16:50:10:353
0.17,1.42,10.39,-0.14,0.06,0.5,0.02,0.0,0.0,640,2019-03-25 16:50:10:357
0.62,1.14,10.21,0.3,-0.2,0.32,0.02,0.0,0.0,645,2019-03-25 16:50:10:362
0.62,1.14,10.21,0.3,-0.2,0.32,0.02,0.0,0.0,650,2019-03-25 16:50:10:367
0.62,1.14,10.21,0.3,-0.2,0.32,0.02,0.0,0.0,655,2019-03-25 16:50:10:372
0.04,1.58,9.48,-0.24,0.17,-0.38,0.02,0.01,0.03,661,2019-03-25 16:50:10:378
0.04,1.58,9.48,-0.24,0.17,-0.38,0.02,0.01,0.03,665,2019-03-25 16:50:10:382
0.04,1.58,9.48,-0.24,0.17,-0.38,0.02,0.01,0.03,670,2019-03-25 16:50:10:387
0.04,1.58,9.48,-0.24,0.17,-0.38,0.02,0.01,0.03,675,2019-03-25 16:50:10:392
-0.11,1.93,9.47,-0.35,0.46,-0.37,0.02,0.02,0.03,680,2019-03-25 16:50:10:397
-0.11,1.93,9.47,-0.35,0.46,-0.37,0.02,0.02,0.03,685,2019-03-25 16:50:10:402
-0.11,1.93,9.47,-0.35,0.46,-0.37,0.02,0.02,0.03,690,2019-03-25 16:50:10:407
-0.11,1.93,9.47,-0.35,0.46,-0.37,0.02,0.02,0.03,695,2019-03-25 16:50:10:412
0.78,1.5,9.93,0.53,0.0,0.06,0.0,0.01,0.01,700,2019-03-25 16:50:10:417
0.78,1.5,9.93,0.53,0.0,0.06,0.0,0.01,0.01,705,2019-03-25 16:50:10:422
0.78,1.5,9.93,0.53,0.0,0.06,0.01,0.01,0.0,710,2019-03-25 16:50:10:427
0.78,1.5,9.93,0.53,0.0,0.06,0.01,0.01,0.0,716,2019-03-25 16:50:10:433
0.78,1.5,9.93,0.53,0.0,0.06,0.01,0.01,0.0,720,2019-03-25 16:50:10:437
0.78,1.5,9.93,0.53,0.0,0.06,0.01,0.01,0.0,725,2019-03-25 16:50:10:442
0.41,1.58,9.88,0.13,0.08,0.0,0.01,0.01,0.0,730,2019-03-25 16:50:10:447
0.41,1.58,9.88,0.13,0.08,0.0,0.01,0.01,0.0,735,2019-03-25 16:50:10:452
0.41,1.58,9.88,0.13,0.08,0.0,0.01,0.01,0.0,740,2019-03-25 16:50:10:457
0.39,1.42,9.82,0.09,-0.07,-0.09,0.02,0.0,-0.01,745,2019-03-25 16:50:10:462
0.39,1.42,9.82,0.09,-0.07,-0.09,0.02,0.0,-0.01,753,2019-03-25 16:50:10:470
0.39,1.42,9.82,0.09,-0.07,-0.09,0.02,0.0,-0.01,755,2019-03-25 16:50:10:472
0.53,1.58,9.25,0.2,0.07,-0.62,0.0,0.01,0.0,760,2019-03-25 16:50:10:477
0.53,1.58,9.25,0.2,0.07,-0.62,0.0,0.01,0.0,765,2019-03-25 16:50:10:482
0.53,1.58,9.25,0.2,0.07,-0.62,0.0,0.01,0.0,770,2019-03-25 16:50:10:487
0.53,1.58,9.25,0.2,0.07,-0.62,0.0,0.01,0.0,775,2019-03-25 16:50:10:492
0.53,1.58,9.25,0.2,0.07,-0.62,0.0,0.01,0.0,780,2019-03-25 16:50:10:497
0.53,1.58,9.25,0.2,0.07,-0.62,0.0,0.01,0.0,785,2019-03-25 16:50:10:502
0.53,1.58,9.25,0.2,0.07,-0.62,0.0,0.01,0.0,790,2019-03-25 16:50:10:507
-0.14,2.16,8.26,-0.42,0.59,-1.52,0.0,0.0,0.0,795,2019-03-25 16:50:10:512
-0.14,2.16,8.26,-0.42,0.59,-1.52,0.0,0.0,0.0,800,2019-03-25 16:50:10:517
-0.14,2.16,8.26,-0.42,0.59,-1.52,0.0,0.0,0.0,805,2019-03-25 16:50:10:522
0.12,2.89,8.46,-0.19,1.19,-1.2,-0.04,-0.02,0.0,810,2019-03-25 16:50:10:527
0.12,2.89,8.46,-0.19,1.19,-1.2,-0.04,-0.02,0.0,815,2019-03-25 16:50:10:532
0.12,2.89,8.46,-0.19,1.19,-1.2,-0.04,0.01,-0.06,820,2019-03-25 16:50:10:537
0.12,2.89,8.46,1.42,-0.59,0.91,-0.04,0.01,-0.06,825,2019-03-25 16:50:10:542
0.47,0.19,11.01,1.42,-0.59,0.91,-0.04,0.01,-0.06,830,2019-03-25 16:50:10:547
0.47,0.19,11.01,1.42,-0.59,0.91,-0.02,-0.01,-0.1,835,2019-03-25 16:50:10:552
0.47,0.19,11.01,1.42,-0.59,0.91,-0.02,-0.01,-0.1,839,2019-03-25 16:50:10:556
0.47,0.19,11.01,1.42,-0.59,0.91,-0.02,-0.01,-0.1,845,2019-03-25 16:50:10:562
0.47,0.19,11.01,1.42,-0.59,0.91,-0.02,-0.01,-0.1,850,2019-03-25 16:50:10:567
0.47,0.19,11.01,1.42,-0.59,0.91,-0.02,-0.01,-0.1,855,2019-03-25 16:50:10:572
0.66,0.36,10.15,0.25,-1.14,0.33,0.0,-0.01,-0.11,860,2019-03-25 16:50:10:577
0.66,0.36,10.15,0.25,-1.14,0.33,0.0,-0.01,-0.11,865,2019-03-25 16:50:10:582
0.66,0.36,10.15,0.25,-1.14,0.33,0.0,-0.01,-0.11,870,2019-03-25 16:50:10:587
0.53,-0.3,9.0,0.05,-1.6,-0.74,0.01,-0.01,-0.14,875,2019-03-25 16:50:10:592
0.53,-0.3,9.0,0.05,-1.6,-0.74,0.01,-0.01,-0.14,880,2019-03-25 16:50:10:597
0.53,-0.3,9.0,0.05,-1.6,-0.74,0.01,-0.01,-0.14,885,2019-03-25 16:50:10:602
0.53,-0.3,9.0,0.05,-1.6,-0.74,0.01,-0.01,-0.14,890,2019-03-25 16:50:10:607
0.53,-0.3,9.0,0.05,-1.6,-0.74,0.01,-0.01,-0.14,895,2019-03-25 16:50:10:612
-0.57,-1.3,10.64,0.05,-1.6,-0.74,0.01,-0.01,-0.14,900,2019-03-25 16:50:10:617
-0.57,-1.3,10.64,0.05,-1.6,-0.74,0.01,-0.01,-0.14,905,2019-03-25 16:50:10:622
-0.57,-1.3,10.64,-0.97,-2.38,0.78,-0.03,-0.03,-0.15,910,2019-03-25 16:50:10:627
-0.57,-1.3,10.64,-0.97,-2.38,0.78,-0.03,-0.03,-0.15,915,2019-03-25 16:50:10:632
-0.57,-1.3,10.64,-0.97,-2.38,0.78,-0.03,-0.03,-0.15,921,2019-03-25 16:50:10:638
-0.57,-1.3,10.64,-0.97,-2.38,0.78,-0.03,-0.03,-0.15,925,2019-03-25 16:50:10:642
0.41,-1.3,10.29,0.03,-2.06,0.44,-0.03,0.01,-0.11,930,2019-03-25 16:50:10:647
0.41,-1.3,10.29,0.03,-2.06,0.44,-0.03,0.01,-0.11,935,2019-03-25 16:50:10:652
0.41,-1.3,10.29,0.03,-2.06,0.44,-0.03,0.01,-0.11,940,2019-03-25 16:50:10:657
1.19,-0.35,10.31,0.76,-0.89,0.42,-0.02,0.02,-0.02,945,2019-03-25 16:50:10:662
1.19,-0.35,10.31,0.76,-0.89,0.42,-0.02,0.02,-0.02,951,2019-03-25 16:50:10:668
1.19,-0.35,10.31,0.76,-0.89,0.42,-0.02,0.02,-0.02,955,2019-03-25 16:50:10:672
1.19,-0.35,10.31,0.76,-0.89,0.42,-0.02,0.02,-0.02,960,2019-03-25 16:50:10:677
0.71,0.82,10.38,0.22,0.4,0.43,0.0,0.03,0.05,965,2019-03-25 16:50:10:682
0.71,0.82,10.38,0.22,0.4,0.43,0.0,0.03,0.05,970,2019-03-25 16:50:10:687
0.71,0.82,10.38,0.22,0.4,0.43,0.0,0.03,0.05,975,2019-03-25 16:50:10:692
0.17,1.68,10.41,-0.34,1.3,0.33,0.0,0.04,0.09,982,2019-03-25 16:50:10:699
0.17,1.68,10.41,-0.34,1.3,0.33,0.0,0.04,0.09,985,2019-03-25 16:50:10:702
0.17,1.68,10.41,-0.34,1.3,0.33,0.0,0.04,0.09,990,2019-03-25 16:50:10:707
0.01,2.41,10.34,-0.44,2.05,0.12,0.01,0.03,0.07,994,2019-03-25 16:50:10:711
0.01,2.41,10.34,-0.44,2.05,0.12,0.01,0.03,0.07,1000,2019-03-25 16:50:10:717
0.01,2.41,10.34,-0.44,2.05,0.12,0.01,0.03,0.07,1005,2019-03-25 16:50:10:722
0.01,2.41,10.34,-0.44,2.05,0.12,0.01,0.03,0.07,1010,2019-03-25 16:50:10:727
0.01,2.41,10.34,-0.44,2.05,0.12,0.01,0.03,0.07,1015,2019-03-25 16:50:10:732
0.01,2.41,10.34,-0.44,2.05,0.12,0.01,0.03,0.07,1021,2019-03-25 16:50:10:738
0.01,2.41,10.34,-0.44,2.05,0.12,0.01,0.03,0.07,1025,2019-03-25 16:50:10:742
0.73,1.92,9.75,0.23,1.52,-0.42,0.02,0.02,0.01,1032,2019-03-25 16:50:10:749
0.73,1.92,9.75,0.23,1.52,-0.42,0.02,0.02,0.01,1035,2019-03-25 16:50:10:752
0.73,1.92,9.75,0.23,1.52,-0.42,0.02,0.02,0.01,1040,2019-03-25 16:50:10:757
0.73,1.92,9.75,0.23,1.52,-0.42,0.02,0.02,0.01,1045,2019-03-25 16:50:10:762
0.73,1.92,9.75,0.23,1.52,-0.42,0.02,0.02,0.01,1050,2019-03-25 16:50:10:767
0.73,1.92,9.75,0.23,1.52,-0.42,0.02,0.02,0.01,1055,2019-03-25 16:50:10:772
0.72,0.87,9.33,0.27,0.28,-0.64,0.01,0.0,-0.09,1060,2019-03-25 16:50:10:777
0.72,0.87,9.33,0.27,0.28,-0.64,0.01,0.0,-0.09,1065,2019-03-25 16:50:10:782
0.72,0.87,9.33,0.27,0.28,-0.64,0.01,0.0,-0.09,1070,2019-03-25 16:50:10:787
0.94,-0.11,11.81,0.49,-0.77,1.42,0.0,0.0,-0.13,1075,2019-03-25 16:50:10:792
0.94,-0.11,11.81,0.49,-0.77,1.42,0.0,0.0,-0.13,1080,2019-03-25 16:50:10:797
0.94,-0.11,11.81,0.49,-0.77,1.42,0.0,0.0,-0.13,1085,2019-03-25 16:50:10:802
0.94,-0.11,11.81,0.49,-0.77,1.42,0.0,0.0,-0.13,1090,2019-03-25 16:50:10:807
-0.23,-1.81,9.88,-0.73,-2.34,-0.36,0.02,0.02,-0.1,1095,2019-03-25 16:50:10:812
-0.23,-1.81,9.88,-0.73,-2.34,-0.36,0.02,0.02,-0.1,1100,2019-03-25 16:50:10:817
-0.23,-1.81,9.88,-0.73,-2.34,-0.36,0.02,0.02,-0.1,1105,2019-03-25 16:50:10:822
-0.23,-1.81,9.88,-0.73,-2.34,-0.36,0.02,0.02,-0.1,1110,2019-03-25 16:50:10:827
-0.23,-1.81,9.88,-0.73,-2.34,-0.36,0.02,0.02,-0.1,1115,2019-03-25 16:50:10:832
-0.23,-1.81,9.88,-0.73,-2.34,-0.36,0.02,0.02,-0.1,1120,2019-03-25 16:50:10:837
-0.23,-1.81,9.88,-0.73,-2.34,-0.36,0.02,0.02,-0.1,1125,2019-03-25 16:50:10:842
0.59,-0.68,9.85,0.09,-1.27,-0.43,0.04,0.03,-0.04,1130,2019-03-25 16:50:10:847
0.59,-0.68,9.85,0.09,-1.27,-0.43,0.04,0.03,-0.04,1135,2019-03-25 16:50:10:852
0.59,-0.68,9.85,0.09,-1.27,-0.43,0.04,0.03,-0.04,1139,2019-03-25 16:50:10:856
0.59,-0.68,9.85,0.09,-1.27,-0.43,0.04,0.03,-0.04,1145,2019-03-25 16:50:10:862
0.59,-0.68,9.85,0.09,-1.27,-0.43,0.04,0.03,-0.04,1151,2019-03-25 16:50:10:868
0.59,-0.68,9.85,0.09,-1.27,-0.43,0.04,0.03,-0.04,1155,2019-03-25 16:50:10:872
-0.65,1.43,9.67,-0.98,0.61,-0.4,0.03,0.01,-0.03,1160,2019-03-25 16:50:10:877
-0.65,1.43,9.67,-0.98,0.61,-0.4,0.03,0.01,-0.03,1165,2019-03-25 16:50:10:882
-0.65,1.43,9.67,-0.98,0.61,-0.4,0.03,0.01,-0.03,1170,2019-03-25 16:50:10:887
0.9,1.12,9.49,0.53,0.34,-0.54,-0.01,0.0,-0.09,1176,2019-03-25 16:50:10:893
0.9,1.12,9.49,0.53,0.34,-0.54,-0.01,0.0,-0.09,1180,2019-03-25 16:50:10:897
0.9,1.12,9.49,0.53,0.34,-0.54,-0.01,0.0,-0.09,1185,2019-03-25 16:50:10:902
0.9,1.12,9.49,0.53,0.34,-0.54,-0.01,0.0,-0.09,1190,2019-03-25 16:50:10:907
0.41,0.47,11.04,0.02,-0.16,0.93,0.0,-0.03,-0.18,1195,2019-03-25 16:50:10:912
0.41,0.47,11.04,0.02,-0.16,0.93,0.0,-0.03,-0.18,1200,2019-03-25 16:50:10:917
0.41,0.47,11.04,0.02,-0.16,0.93,0.0,-0.03,-0.18,1205,2019-03-25 16:50:10:922
1.4,-0.2,10.01,0.96,-0.61,-0.12,-0.02,-0.01,-0.22,1210,2019-03-25 16:50:10:927
1.4,-0.2,10.01,0.96,-0.61,-0.12,-0.02,-0.01,-0.22,1215,2019-03-25 16:50:10:932
1.4,-0.2,10.01,0.96,-0.61,-0.12,-0.02,-0.01,-0.22,1220,2019-03-25 16:50:10:937
1.4,-0.2,10.01,0.96,-0.61,-0.12,-0.02,-0.01,-0.22,1225,2019-03-25 16:50:10:942
1.4,-0.2,10.01,0.96,-0.61,-0.12,-0.02,-0.01,-0.22,1229,2019-03-25 16:50:10:946
1.4,-0.2,10.01,0.96,-0.61,-0.12,-0.02,-0.01,-0.22,1235,2019-03-25 16:50:10:952
1.4,-0.2,10.01,0.96,-0.61,-0.12,-0.02,-0.01,-0.22,1241,2019-03-25 16:50:10:958
1.02,-0.93,9.45,0.52,-1.1,-0.66,-0.07,0.0,-0.19,1245,2019-03-25 16:50:10:962
1.02,-0.93,9.45,0.52,-1.1,-0.66,-0.07,0.0,-0.19,1250,2019-03-25 16:50:10:967
1.02,-0.93,9.45,0.52,-1.1,-0.66,-0.07,0.0,-0.19,1254,2019-03-25 16:50:10:971
1.02,-0.93,9.45,0.52,-1.1,-0.66,-0.07,0.0,-0.19,1261,2019-03-25 16:50:10:978
1.02,-0.93,9.45,0.52,-1.1,-0.66,-0.07,0.0,-0.19,1265,2019-03-25 16:50:10:982
1.02,-0.93,9.45,0.52,-1.1,-0.66,-0.07,0.0,-0.19,1270,2019-03-25 16:50:10:987
1.02,-0.93,9.45,0.52,-1.1,-0.66,-0.07,0.0,-0.19,1274,2019-03-25 16:50:10:991
0.56,-1.16,9.28,0.04,-1.1,-0.82,-0.03,0.0,-0.17,1280,2019-03-25 16:50:10:997
0.56,-1.16,9.28,0.04,-1.1,-0.82,-0.03,0.0,-0.17,1285,2019-03-25 16:50:11:002
0.56,-1.16,9.28,0.04,-1.1,-0.82,-0.03,0.0,-0.17,1290,2019-03-25 16:50:11:007
0.56,-1.16,9.28,0.04,-1.1,-0.82,-0.03,0.0,-0.17,1295,2019-03-25 16:50:11:012
0.56,-1.16,9.28,0.04,-1.1,-0.82,-0.03,0.0,-0.17,1300,2019-03-25 16:50:11:017
0.56,-1.16,9.28,0.04,-1.1,-0.82,-0.03,0.0,-0.17,1305,2019-03-25 16:50:11:022
0.56,-1.16,9.28,0.04,-1.1,-0.82,-0.03,0.0,-0.17,1310,2019-03-25 16:50:11:027
0.56,-1.16,9.28,0.04,-1.1,-0.82,-0.03,0.0,-0.17,1315,2019-03-25 16:50:11:032
0.14,-0.63,9.79,-0.29,-0.6,-0.04,0.0,0.01,-0.06,1320,2019-03-25 16:50:11:037
0.14,-0.63,9.79,-0.29,-0.6,-0.04,0.0,0.01,-0.06,1325,2019-03-25 16:50:11:042
0.14,-0.63,9.79,-0.29,-0.6,-0.04,0.0,0.01,-0.06,1332,2019-03-25 16:50:11:049
0.14,-0.63,9.79,-0.29,-0.6,-0.04,0.0,0.01,-0.06,1335,2019-03-25 16:50:11:052
-1.22,-0.88,9.57,-1.43,-0.83,-0.32,0.01,0.01,0.07,1340,2019-03-25 16:50:11:057
-1.22,-0.88,9.57,-1.43,-0.83,-0.32,0.01,0.01,0.07,1345,2019-03-25 16:50:11:062
-1.22,-0.88,9.57,-1.43,-0.83,-0.32,0.01,0.01,0.07,1350,2019-03-25 16:50:11:067
1.91,2.81,10.25,1.66,2.87,0.28,0.03,-0.01,0.22,1355,2019-03-25 16:50:11:072
1.91,2.81,10.25,1.66,2.87,0.28,0.03,-0.01,0.22,1360,2019-03-25 16:50:11:077
1.91,2.81,10.25,1.66,2.87,0.28,0.03,-0.01,0.22,1366,2019-03-25 16:50:11:083
1.91,2.81,10.25,1.66,2.87,0.28,0.03,-0.01,0.22,1371,2019-03-25 16:50:11:088
1.91,2.81,10.25,1.66,2.87,0.28,0.03,-0.01,0.22,1375,2019-03-25 16:50:11:092
1.17,5.0,8.08,1.66,2.87,0.28,0.04,0.0,0.16,1380,2019-03-25 16:50:11:097
1.17,5.0,8.08,1.66,2.87,0.28,0.04,0.0,0.16,1385,2019-03-25 16:50:11:102
1.17,5.0,8.08,0.82,4.7,-1.78,0.04,0.0,0.16,1390,2019-03-25 16:50:11:107
1.17,5.0,8.08,0.82,4.7,-1.78,0.04,0.0,0.16,1395,2019-03-25 16:50:11:112
1.17,5.0,8.08,0.82,4.7,-1.78,0.04,0.0,0.16,1401,2019-03-25 16:50:11:118
1.17,5.0,8.08,0.82,4.7,-1.78,0.04,0.0,0.16,1404,2019-03-25 16:50:11:121
0.01,4.17,7.95,-0.36,3.48,-1.68,-0.05,-0.05,0.0,1410,2019-03-25 16:50:11:127
0.01,4.17,7.95,-0.36,3.48,-1.68,-0.05,-0.05,0.0,1419,2019-03-25 16:50:11:136
0.01,4.17,7.95,-0.36,3.48,-1.68,-0.05,-0.05,0.0,1422,2019-03-25 16:50:11:139
-0.03,1.83,10.44,-0.33,0.95,0.75,-0.13,-0.04,-0.14,1425,2019-03-25 16:50:11:142
-0.03,1.83,10.44,-0.33,0.95,0.75,-0.13,-0.04,-0.14,1431,2019-03-25 16:50:11:148
-0.03,1.83,10.44,-0.33,0.95,0.75,-0.13,-0.04,-0.14,1436,2019-03-25 16:50:11:153
-0.03,1.83,10.44,-0.33,0.95,0.75,-0.13,-0.04,-0.14,1440,2019-03-25 16:50:11:157
-0.03,1.83,10.44,-0.33,0.95,0.75,-0.13,-0.04,-0.14,1445,2019-03-25 16:50:11:162
-0.03,1.83,10.44,-0.33,0.95,0.75,-0.13,-0.04,-0.14,1451,2019-03-25 16:50:11:168
-0.03,1.83,10.44,-0.33,0.95,0.75,-0.13,-0.04,-0.14,1455,2019-03-25 16:50:11:172
2.12,-0.44,9.54,1.8,-1.5,-0.19,-0.04,0.0,-0.18,1460,2019-03-25 16:50:11:177
2.12,-0.44,9.54,1.8,-1.5,-0.19,-0.04,0.0,-0.18,1466,2019-03-25 16:50:11:183
2.12,-0.44,9.54,1.8,-1.5,-0.19,-0.04,0.0,-0.18,1470,2019-03-25 16:50:11:187
0.09,0.54,11.42,-0.31,-0.62,1.67,0.05,-0.04,-0.15,1477,2019-03-25 16:50:11:194
0.09,0.54,11.42,-0.31,-0.62,1.67,0.05,-0.04,-0.15,1481,2019-03-25 16:50:11:198
0.09,0.54,11.42,-0.31,-0.62,1.67,0.05,-0.04,-0.15,1485,2019-03-25 16:50:11:202
0.51,0.68,8.85,0.07,-0.6,-0.83,-0.01,0.0,-0.1,1490,2019-03-25 16:50:11:207
0.51,0.68,8.85,0.07,-0.6,-0.83,-0.01,0.0,-0.1,1495,2019-03-25 16:50:11:212
0.51,0.68,8.85,0.07,-0.6,-0.83,-0.01,0.0,-0.1,1500,2019-03-25 16:50:11:217
0.51,0.68,8.85,0.07,-0.6,-0.83,-0.01,0.0,-0.1,1505,2019-03-25 16:50:11:222
-0.75,1.28,10.47,-1.17,-0.17,0.79,-0.02,-0.02,-0.08,1510,2019-03-25 16:50:11:227
-0.75,1.28,10.47,-1.17,-0.17,0.79,-0.02,-0.02,-0.08,1515,2019-03-25 16:50:11:232
-0.75,1.28,10.47,-1.17,-0.17,0.79,-0.02,-0.02,-0.08,1520,2019-03-25 16:50:11:237
-0.75,1.28,10.47,-1.17,-0.17,0.79,-0.02,-0.02,-0.08,1525,2019-03-25 16:50:11:242
0.04,1.06,9.67,-0.51,-0.54,0.04,-0.06,0.03,-0.05,1530,2019-03-25 16:50:11:247
0.04,1.06,9.67,-0.51,-0.54,0.04,-0.06,0.03,-0.05,1535,2019-03-25 16:50:11:252
0.04,1.06,9.67,-0.51,-0.54,0.04,-0.06,0.03,-0.05,1540,2019-03-25 16:50:11:257
0.04,1.06,9.67,-0.98,-0.64,0.57,-0.06,0.03,-0.05,1546,2019-03-25 16:50:11:263
0.04,1.06,9.67,-0.98,-0.64,0.57,-0.06,0.03,-0.05,1554,2019-03-25 16:50:11:271
0.04,1.06,9.67,-0.98,-0.64,0.57,-0.06,0.03,-0.05,1557,2019-03-25 16:50:11:274
0.24,0.54,9.49,-0.24,-1.04,-0.15,-0.08,-0.01,-0.02,1560,2019-03-25 16:50:11:277
0.24,0.54,9.49,-0.24,-1.04,-0.15,-0.08,-0.01,-0.02,1566,2019-03-25 16:50:11:283
0.24,0.54,9.49,-0.24,-1.04,-0.15,-0.08,-0.01,-0.02,1571,2019-03-25 16:50:11:288
0.24,0.54,9.49,-0.24,-1.04,-0.15,-0.08,-0.01,-0.02,1575,2019-03-25 16:50:11:292
0.11,1.84,9.9,-0.26,0.59,0.2,-0.09,0.0,-0.02,1580,2019-03-25 16:50:11:297
0.11,1.84,9.9,-0.26,0.59,0.2,-0.09,0.0,-0.02,1587,2019-03-25 16:50:11:304
0.11,1.84,9.9,-0.26,0.59,0.2,-0.08,-0.06,-0.03,1590,2019-03-25 16:50:11:307
-0.46,0.27,6.99,-0.77,-0.56,-2.76,-0.08,-0.06,-0.03,1595,2019-03-25 16:50:11:312
-0.46,0.27,6.99,-0.77,-0.56,-2.76,-0.08,-0.06,-0.03,1600,2019-03-25 16:50:11:317
-0.46,0.27,6.99,-0.77,-0.56,-2.76,-0.08,-0.06,-0.03,1605,2019-03-25 16:50:11:322
0.02,0.8,7.56,-0.28,0.0,-2.06,-0.02,-0.01,-0.04,1611,2019-03-25 16:50:11:328
0.02,0.8,7.56,-0.28,0.0,-2.06,-0.02,-0.01,-0.04,1616,2019-03-25 16:50:11:333
0.02,0.8,7.56,-0.28,0.0,-2.06,-0.02,-0.01,-0.04,1621,2019-03-25 16:50:11:338
0.02,0.8,7.56,-0.28,0.0,-2.06,-0.02,-0.01,-0.04,1625,2019-03-25 16:50:11:342
0.02,0.8,7.56,-0.28,0.0,-2.06,-0.02,-0.01,-0.04,1631,2019-03-25 16:50:11:348
0.02,0.8,7.56,-0.28,0.0,-2.06,-0.02,-0.01,-0.04,1635,2019-03-25 16:50:11:352
0.37,1.82,10.85,0.04,0.87,0.88,-0.11,-0.05,0.0,1640,2019-03-25 16:50:11:357
0.37,1.82,10.85,0.04,0.87,0.88,-0.11,-0.05,0.0,1645,2019-03-25 16:50:11:362
0.37,1.82,10.85,0.04,0.87,0.88,-0.11,-0.05,0.0,1650,2019-03-25 16:50:11:367
0.45,-1.07,7.78,0.25,-1.89,-1.94,0.01,0.03,-0.06,1655,2019-03-25 16:50:11:372
0.45,-1.07,7.78,0.25,-1.89,-1.94,0.01,0.03,-0.06,1660,2019-03-25 16:50:11:377
0.45,-1.07,7.78,0.25,-1.89,-1.94,0.01,0.03,-0.06,1665,2019-03-25 16:50:11:382
0.45,-1.07,7.78,0.25,-1.89,-1.94,0.01,0.03,-0.06,1670,2019-03-25 16:50:11:387
2.04,0.12,10.56,1.82,-0.61,0.65,-0.12,0.0,-0.09,1675,2019-03-25 16:50:11:392
2.04,0.12,10.56,1.82,-0.61,0.65,-0.12,0.0,-0.09,1680,2019-03-25 16:50:11:397
2.04,0.12,10.56,1.82,-0.61,0.65,-0.12,0.0,-0.09,1685,2019-03-25 16:50:11:402
2.04,0.12,10.56,1.82,-0.61,0.65,-0.12,0.0,-0.09,1691,2019-03-25 16:50:11:408
2.04,0.12,10.56,1.82,-0.61,0.65,-0.12,0.0,-0.09,1695,2019-03-25 16:50:11:412
1.11,-1.24,9.42,0.82,-1.82,-0.47,-0.06,0.05,-0.15,1700,2019-03-25 16:50:11:417
1.11,-1.24,9.42,0.82,-1.82,-0.47,-0.06,0.05,-0.15,1707,2019-03-25 16:50:11:424
1.11,-1.24,9.42,0.82,-1.82,-0.47,-0.06,0.05,-0.15,1710,2019-03-25 16:50:11:427
1.11,-1.24,9.42,0.82,-1.82,-0.47,-0.06,0.05,-0.15,1716,2019-03-25 16:50:11:433
1.44,0.98,10.27,0.99,0.48,0.35,-0.16,0.02,-0.16,1720,2019-03-25 16:50:11:437
1.44,0.98,10.27,0.99,0.48,0.35,-0.16,0.02,-0.16,1726,2019-03-25 16:50:11:443
1.44,0.98,10.27,0.99,0.48,0.35,-0.16,0.02,-0.16,1733,2019-03-25 16:50:11:450
1.44,0.98,10.27,0.99,0.48,0.35,-0.16,0.02,-0.16,1734,2019-03-25 16:50:11:451
0.91,1.01,9.6,0.35,0.55,-0.31,-0.09,0.01,-0.2,1740,2019-03-25 16:50:11:457
0.91,1.01,9.6,0.35,0.55,-0.31,-0.09,0.01,-0.2,1745,2019-03-25 16:50:11:462
0.42,1.31,10.68,0.35,0.55,-0.31,-0.09,0.01,-0.2,1750,2019-03-25 16:50:11:467
0.42,1.31,10.68,-0.23,0.8,0.7,-0.07,0.0,-0.21,1755,2019-03-25 16:50:11:472
0.42,1.31,10.68,-0.23,0.8,0.7,-0.07,0.0,-0.21,1760,2019-03-25 16:50:11:477
0.42,1.31,10.68,-0.23,0.8,0.7,-0.07,0.0,-0.21,1765,2019-03-25 16:50:11:482
0.42,1.31,10.68,-0.23,0.8,0.7,-0.07,0.0,-0.21,1771,2019-03-25 16:50:11:488
0.42,1.31,10.68,-0.23,0.8,0.7,-0.07,0.0,-0.21,1775,2019-03-25 16:50:11:492
0.3,0.97,9.98,-0.33,0.49,-0.03,-0.02,0.0,-0.19,1780,2019-03-25 16:50:11:497
0.3,0.97,9.98,-0.33,0.49,-0.03,-0.02,0.0,-0.19,1786,2019-03-25 16:50:11:503
0.3,0.97,9.98,-0.33,0.49,-0.03,-0.02,0.0,-0.16,1791,2019-03-25 16:50:11:508
0.37,0.91,9.65,-0.56,1.12,0.41,-0.02,0.0,-0.16,1796,2019-03-25 16:50:11:513
0.37,0.91,9.65,-0.56,1.12,0.41,-0.02,0.0,-0.16,1805,2019-03-25 16:50:11:522
0.43,0.35,8.67,-0.27,-0.12,-1.46,0.02,0.01,-0.14,1815,2019-03-25 16:50:11:532
0.43,0.35,8.67,-0.27,-0.12,-1.46,0.02,0.01,-0.14,1815,2019-03-25 16:50:11:532
0.43,0.35,8.67,-0.27,-0.12,-1.46,0.02,0.01,-0.14,1817,2019-03-25 16:50:11:534
0.43,0.35,8.67,-0.27,-0.12,-1.46,0.02,0.01,-0.14,1821,2019-03-25 16:50:11:538
0.43,0.35,8.67,-0.27,-0.12,-1.46,0.02,0.01,-0.14,1825,2019-03-25 16:50:11:542
0.43,0.35,8.67,-0.27,-0.12,-1.46,0.02,0.01,-0.14,1830,2019-03-25 16:50:11:547
0.43,0.35,8.67,-0.27,-0.12,-1.46,0.02,0.01,-0.14,1835,2019-03-25 16:50:11:552
-0.07,0.7,8.57,-0.74,0.32,-1.09,-0.03,-0.02,-0.09,1840,2019-03-25 16:50:11:557
-0.07,0.7,8.57,-0.74,0.32,-1.09,-0.03,-0.02,-0.09,1846,2019-03-25 16:50:11:563
-0.07,0.7,8.57,-0.74,0.32,-1.09,-0.03,-0.02,-0.09,1855,2019-03-25 16:50:11:572
-0.07,0.7,8.57,-0.74,0.32,-1.09,-0.03,-0.02,-0.09,1856,2019-03-25 16:50:11:573
-0.07,0.7,8.57,-0.07,-0.49,0.33,-0.04,0.01,-0.09,1860,2019-03-25 16:50:11:577
-0.07,0.7,8.57,-0.07,-0.49,0.33,-0.04,0.01,-0.09,1865,2019-03-25 16:50:11:582
0.64,0.02,10.93,0.09,-0.57,1.02,0.01,0.02,-0.1,1870,2019-03-25 16:50:11:587
0.64,0.02,10.93,0.09,-0.57,1.02,0.01,0.02,-0.1,1876,2019-03-25 16:50:11:593
0.64,0.02,10.93,0.09,-0.57,1.02,0.01,0.02,-0.1,1880,2019-03-25 16:50:11:597
0.64,0.02,10.93,0.09,-0.57,1.02,0.01,0.02,-0.1,1885,2019-03-25 16:50:11:602
0.72,0.28,7.29,0.22,-0.48,-2.51,0.06,0.02,-0.1,1891,2019-03-25 16:50:11:608
0.72,0.28,7.29,0.22,-0.48,-2.51,0.06,0.02,-0.1,1895,2019-03-25 16:50:11:612
0.72,0.28,7.29,0.22,-0.48,-2.51,0.06,0.02,-0.1,1900,2019-03-25 16:50:11:617
0.72,0.28,7.29,0.22,-0.48,-2.51,0.06,0.02,-0.1,1905,2019-03-25 16:50:11:622
0.72,0.28,7.29,0.22,-0.48,-2.51,0.06,0.02,-0.1,1910,2019-03-25 16:50:11:627
0.72,0.28,7.29,0.22,-0.48,-2.51,0.06,0.02,-0.1,1915,2019-03-25 16:50:11:632
-0.39,1.88,10.32,-0.78,1.04,0.63,0.07,-0.03,-0.11,1920,2019-03-25 16:50:11:637
-0.39,1.88,10.32,-0.78,1.04,0.63,0.07,-0.03,-0.11,1925,2019-03-25 16:50:11:642
-0.39,1.88,10.32,-0.78,1.04,0.63,0.07,-0.03,-0.11,1930,2019-03-25 16:50:11:647
-0.39,1.88,10.32,-0.78,1.04,0.63,0.07,-0.03,-0.11,1935,2019-03-25 16:50:11:652
0.3,0.17,9.03,0.0,-0.64,-0.72,0.07,-0.01,-0.13,1940,2019-03-25 16:50:11:657
0.3,0.17,9.03,0.0,-0.64,-0.72,0.07,-0.01,-0.13,1945,2019-03-25 16:50:11:662
0.3,0.17,9.03,0.0,-0.64,-0.72,0.0,-0.01,-0.14,1950,2019-03-25 16:50:11:667
0.3,0.17,9.03,0.0,-0.64,-0.72,0.0,-0.01,-0.14,1955,2019-03-25 16:50:11:672
0.3,0.17,9.03,0.0,-0.64,-0.72,0.0,-0.01,-0.14,1960,2019-03-25 16:50:11:677
0.45,-0.02,10.44,0.16,-0.55,0.62,0.0,0.0,-0.15,1968,2019-03-25 16:50:11:685
0.45,-0.02,10.44,0.16,-0.55,0.62,0.0,0.0,-0.15,1972,2019-03-25 16:50:11:689
0.45,-0.02,10.44,0.16,-0.55,0.62,0.0,0.0,-0.15,1974,2019-03-25 16:50:11:691
0.45,-0.02,10.44,0.16,-0.55,0.62,0.0,0.0,-0.15,1980,2019-03-25 16:50:11:697
0.45,-0.02,10.44,0.16,-0.55,0.62,0.0,0.0,-0.15,1985,2019-03-25 16:50:11:702
0.34,-0.31,9.64,0.04,-0.7,-0.18,0.01,-0.03,-0.15,1993,2019-03-25 16:50:11:710
0.34,-0.31,9.64,0.04,-0.7,-0.18,0.01,-0.03,-0.15,1995,2019-03-25 16:50:11:712
0.34,-0.31,9.64,0.04,-0.7,-0.18,0.01,-0.03,-0.15,2000,2019-03-25 16:50:11:717
0.34,-0.31,9.64,0.04,-0.7,-0.18,0.01,-0.03,-0.15,2006,2019-03-25 16:50:11:723
0.43,-0.2,10.65,0.09,-0.48,0.75,0.0,0.0,-0.14,2010,2019-03-25 16:50:11:727
0.43,-0.2,10.65,0.09,-0.48,0.75,0.0,0.0,-0.14,2016,2019-03-25 16:50:11:733
0.43,-0.2,10.65,0.09,-0.48,0.75,0.0,0.0,-0.14,2020,2019-03-25 16:50:11:737
0.43,-0.2,10.65,0.09,-0.48,0.75,0.0,0.0,-0.14,2025,2019-03-25 16:50:11:742
0.43,-0.2,10.65,0.09,-0.48,0.75,0.0,0.0,-0.14,2030,2019-03-25 16:50:11:747
0.43,-0.2,10.65,0.09,-0.48,0.75,0.0,0.0,-0.14,2035,2019-03-25 16:50:11:752
0.43,-0.2,10.65,0.09,-0.48,0.75,0.0,0.0,-0.14,2040,2019-03-25 16:50:11:757
1.18,-0.36,7.61,0.76,-0.52,-2.24,0.0,0.0,-0.13,2044,2019-03-25 16:50:11:761
1.18,-0.36,7.61,0.76,-0.52,-2.24,0.0,0.0,-0.13,2050,2019-03-25 16:50:11:767
1.18,-0.36,7.61,0.76,-0.52,-2.24,0.0,0.0,-0.13,2056,2019-03-25 16:50:11:773
1.18,-0.36,7.61,0.76,-0.52,-2.24,0.0,0.0,-0.13,2059,2019-03-25 16:50:11:776
1.08,0.8,12.71,0.55,0.61,2.61,-0.03,-0.05,-0.13,2065,2019-03-25 16:50:11:782
1.08,0.8,12.71,0.55,0.61,2.61,-0.03,-0.05,-0.13,2071,2019-03-25 16:50:11:788
1.08,0.8,12.71,0.55,0.61,2.61,-0.03,-0.05,-0.13,2075,2019-03-25 16:50:11:792
1.08,0.8,12.71,0.55,0.61,2.61,-0.03,-0.05,-0.13,2080,2019-03-25 16:50:11:797
-0.24,-1.29,8.87,-0.73,-1.38,-1.07,0.04,0.0,-0.16,2085,2019-03-25 16:50:11:802
-0.24,-1.29,8.87,-0.73,-1.38,-1.07,0.04,0.0,-0.16,2090,2019-03-25 16:50:11:807
-0.24,-1.29,8.87,-0.73,-1.38,-1.07,0.04,0.0,-0.16,2095,2019-03-25 16:50:11:812
-0.24,-1.29,8.87,-0.73,-1.38,-1.07,0.04,0.0,-0.16,2099,2019-03-25 16:50:11:816
-0.24,-1.29,8.87,-0.73,-1.38,-1.07,0.04,0.0,-0.16,2106,2019-03-25 16:50:11:823
-0.24,-1.29,8.87,-0.73,-1.38,-1.07,0.04,0.0,-0.16,2110,2019-03-25 16:50:11:827
-0.24,-1.29,8.87,-0.73,-1.38,-1.07,0.04,0.0,-0.16,2116,2019-03-25 16:50:11:833
-1.65,0.74,10.36,-2.09,0.65,0.22,0.12,-0.04,-0.16,2120,2019-03-25 16:50:11:837
-1.65,0.74,10.36,-2.09,0.65,0.22,0.12,-0.04,-0.16,2125,2019-03-25 16:50:11:842
-1.65,0.74,10.36,-2.09,0.65,0.22,0.12,-0.04,-0.16,2130,2019-03-25 16:50:11:847
-1.65,0.74,10.36,-2.09,0.65,0.22,0.12,-0.04,-0.16,2135,2019-03-25 16:50:11:852
-1.65,0.74,10.36,-2.09,0.65,0.22,0.12,-0.04,-0.16,2140,2019-03-25 16:50:11:857
0.26,0.9,8.59,-0.14,0.79,-1.52,-0.02,0.0,-0.09,2145,2019-03-25 16:50:11:862
0.26,0.9,8.59,-0.14,0.79,-1.52,-0.02,0.0,-0.09,2151,2019-03-25 16:50:11:868
0.26,0.9,8.59,-0.14,0.79,-1.52,-0.02,0.0,-0.09,2155,2019-03-25 16:50:11:872
0.26,0.9,8.59,-0.14,0.79,-1.52,-0.02,0.0,-0.09,2160,2019-03-25 16:50:11:877
1.29,0.44,9.88,0.81,0.27,-0.17,-0.02,0.0,-0.02,2165,2019-03-25 16:50:11:882
1.29,0.44,9.88,0.81,0.27,-0.17,-0.02,0.0,-0.02,2171,2019-03-25 16:50:11:888
1.29,0.44,9.88,0.81,0.27,-0.17,-0.02,0.0,-0.02,2178,2019-03-25 16:50:11:895
1.29,0.44,9.88,0.81,0.27,-0.17,-0.02,0.0,-0.02,2180,2019-03-25 16:50:11:897
0.99,0.25,10.95,0.49,0.05,0.85,-0.02,0.0,-0.07,2185,2019-03-25 16:50:11:902
0.99,0.25,10.95,0.49,0.05,0.85,-0.02,0.0,-0.07,2190,2019-03-25 16:50:11:907
0.99,0.25,10.95,0.49,0.05,0.85,-0.02,0.0,-0.07,2196,2019-03-25 16:50:11:913
0.99,0.25,10.95,0.49,0.05,0.85,-0.02,0.0,-0.07,2200,2019-03-25 16:50:11:917
0.66,0.36,10.21,0.09,0.12,0.11,0.0,-0.01,-0.14,2205,2019-03-25 16:50:11:922
0.66,0.36,10.21,0.09,0.12,0.11,0.0,-0.01,-0.14,2210,2019-03-25 16:50:11:927
0.66,0.36,10.21,0.09,0.12,0.11,0.0,-0.01,-0.14,2216,2019-03-25 16:50:11:933
0.66,0.36,10.21,0.09,0.12,0.11,0.0,-0.01,-0.14,2220,2019-03-25 16:50:11:937
0.66,0.36,10.21,0.09,0.12,0.11,0.0,-0.01,-0.14,2226,2019-03-25 16:50:11:943
0.57,1.09,9.09,0.05,0.59,-1.03,0.01,0.0,-0.13,2231,2019-03-25 16:50:11:948
0.57,1.09,9.09,0.05,0.59,-1.03,0.01,0.0,-0.13,2235,2019-03-25 16:50:11:952
0.57,1.09,9.09,0.05,0.59,-1.03,0.01,0.0,-0.13,2240,2019-03-25 16:50:11:957
0.57,1.09,9.09,0.05,0.59,-1.03,0.01,0.0,-0.13,2245,2019-03-25 16:50:11:962
0.57,1.09,9.09,0.05,0.59,-1.03,0.01,0.0,-0.13,2250,2019-03-25 16:50:11:967
0.57,1.09,9.09,0.05,0.59,-1.03,0.01,0.0,-0.13,2256,2019-03-25 16:50:11:973
0.57,1.09,9.09,0.05,0.59,-1.03,0.01,0.0,-0.13,2260,2019-03-25 16:50:11:977
1.09,1.98,11.81,0.54,1.38,1.95,-0.01,-0.03,-0.1,2265,2019-03-25 16:50:11:982
1.09,1.98,11.81,0.54,1.38,1.95,-0.01,-0.03,-0.1,2270,2019-03-25 16:50:11:987
1.09,1.98,11.81,0.54,1.38,1.95,-0.01,-0.03,-0.1,2275,2019-03-25 16:50:11:992
1.09,1.98,11.81,0.54,1.38,1.95,-0.01,-0.03,-0.1,2280,2019-03-25 16:50:11:997
-0.4,-0.2,8.47,-0.91,-0.94,-1.33,-0.02,-0.02,-0.11,2285,2019-03-25 16:50:12:002
-0.4,-0.2,8.47,-0.91,-0.94,-1.33,-0.02,-0.02,-0.11,2290,2019-03-25 16:50:12:007
-0.4,-0.2,8.47,-0.91,-0.94,-1.33,-0.02,-0.02,-0.11,2295,2019-03-25 16:50:12:012
1.46,1.69,10.44,-0.91,-0.94,-1.33,0.0,-0.01,-0.14,2300,2019-03-25 16:50:12:017
1.46,1.69,10.44,-0.91,-0.94,-1.33,0.0,-0.01,-0.14,2305,2019-03-25 16:50:12:022
0.44,0.79,11.18,0.93,0.89,0.54,0.02,-0.01,-0.2,2310,2019-03-25 16:50:12:027
0.44,0.79,11.18,0.93,0.89,0.54,0.02,-0.01,-0.2,2315,2019-03-25 16:50:12:032
0.44,0.79,11.18,0.93,0.89,0.54,0.02,-0.01,-0.2,2320,2019-03-25 16:50:12:037
0.44,0.79,11.18,0.93,0.89,0.54,0.02,-0.01,-0.2,2325,2019-03-25 16:50:12:042
1.27,0.71,8.98,0.56,-0.04,-0.9,-0.08,0.0,-0.21,2330,2019-03-25 16:50:12:047
1.27,0.71,8.98,0.56,-0.04,-0.9,-0.08,0.0,-0.21,2335,2019-03-25 16:50:12:052
1.27,0.71,8.98,0.56,-0.04,-0.9,-0.08,0.0,-0.21,2340,2019-03-25 16:50:12:057
1.27,0.71,8.98,0.56,-0.04,-0.9,-0.08,0.0,-0.21,2345,2019-03-25 16:50:12:062
0.03,0.89,7.18,-0.6,0.1,-2.36,-0.04,0.0,-0.25,2350,2019-03-25 16:50:12:067
0.03,0.89,7.18,-0.6,0.1,-2.36,-0.04,0.0,-0.25,2355,2019-03-25 16:50:12:072
0.03,0.89,7.18,-0.6,0.1,-2.36,-0.04,0.0,-0.25,2360,2019-03-25 16:50:12:077
0.03,0.89,7.18,-0.6,0.1,-2.36,-0.04,0.0,-0.25,2365,2019-03-25 16:50:12:082
0.03,0.89,7.18,-0.6,0.1,-2.36,-0.04,0.0,-0.25,2370,2019-03-25 16:50:12:087
0.03,0.89,7.18,-0.6,0.1,-2.36,-0.04,0.0,-0.25,2375,2019-03-25 16:50:12:092
0.03,0.89,7.18,-0.6,0.1,-2.36,-0.04,0.0,-0.25,2381,2019-03-25 16:50:12:098
0.03,0.89,7.18,-0.6,0.1,-2.36,-0.04,0.0,-0.25,2385,2019-03-25 16:50:12:102
0.8,1.97,12.29,0.29,1.09,2.36,-0.09,0.0,-0.24,2390,2019-03-25 16:50:12:107
0.8,1.97,12.29,0.29,1.09,2.36,-0.09,0.0,-0.24,2395,2019-03-25 16:50:12:112
0.8,1.97,12.29,0.29,1.09,2.36,-0.09,0.0,-0.24,2400,2019-03-25 16:50:12:117
0.8,1.97,12.29,0.29,1.09,2.36,-0.09,0.0,-0.24,2406,2019-03-25 16:50:12:123
0.8,1.97,12.29,0.29,1.09,2.36,-0.09,0.0,-0.24,2410,2019-03-25 16:50:12:127
0.8,1.97,12.29,0.29,1.09,2.36,-0.09,0.0,-0.24,2414,2019-03-25 16:50:12:131
1.16,-1.04,7.97,0.29,1.09,2.36,-0.09,0.0,-0.24,2421,2019-03-25 16:50:12:138
1.16,-1.04,7.97,0.56,-1.66,-1.83,0.02,0.06,-0.15,2429,2019-03-25 16:50:12:146
-0.65,1.27,11.38,0.56,-1.66,-1.83,0.02,0.06,-0.15,2430,2019-03-25 16:50:12:147
-0.65,1.27,11.38,0.56,-1.66,-1.83,0.02,0.06,-0.15,2435,2019-03-25 16:50:12:152
-0.65,1.27,11.38,0.56,-1.66,-1.83,0.02,0.06,-0.15,2440,2019-03-25 16:50:12:157
-0.65,1.27,11.38,0.56,-1.66,-1.83,0.02,0.06,-0.15,2445,2019-03-25 16:50:12:162
-0.65,1.27,11.38,0.56,-1.66,-1.83,0.02,0.06,-0.15,2452,2019-03-25 16:50:12:169
-0.65,1.27,11.38,0.56,-1.66,-1.83,0.02,0.06,-0.15,2455,2019-03-25 16:50:12:172
0.28,0.86,10.41,-0.03,0.3,0.53,0.03,-0.04,-0.12,2460,2019-03-25 16:50:12:177
0.28,0.86,10.41,-0.03,0.3,0.53,0.03,-0.04,-0.12,2465,2019-03-25 16:50:12:182
0.45,-0.82,10.95,0.08,-1.4,0.75,-0.03,-0.02,-0.09,2470,2019-03-25 16:50:12:187
0.45,-0.82,10.95,0.08,-1.4,0.75,-0.03,-0.02,-0.09,2475,2019-03-25 16:50:12:192
0.45,-0.82,10.95,0.08,-1.4,0.75,-0.03,-0.02,-0.09,2480,2019-03-25 16:50:12:197
0.45,-0.82,10.95,0.08,-1.4,0.75,-0.03,-0.02,-0.09,2485,2019-03-25 16:50:12:202
-0.81,0.42,10.69,-1.07,-0.08,0.47,0.06,-0.02,-0.12,2490,2019-03-25 16:50:12:207
-0.81,0.42,10.69,-1.07,-0.08,0.47,0.06,-0.02,-0.12,2496,2019-03-25 16:50:12:213
-0.81,0.42,10.69,-1.07,-0.08,0.47,0.06,-0.02,-0.12,2502,2019-03-25 16:50:12:219
-0.81,0.42,10.69,-1.07,-0.08,0.47,0.06,-0.02,-0.12,2506,2019-03-25 16:50:12:223
1.31,-0.52,7.32,1.0,-0.98,-2.82,0.06,-0.02,-0.07,2511,2019-03-25 16:50:12:228
1.31,-0.52,7.32,1.0,-0.98,-2.82,0.06,-0.02,-0.07,2515,2019-03-25 16:50:12:232
1.31,-0.52,7.32,1.0,-0.98,-2.82,0.06,-0.02,-0.07,2520,2019-03-25 16:50:12:237
1.31,-0.52,7.32,1.0,-0.98,-2.82,0.06,-0.02,-0.07,2525,2019-03-25 16:50:12:242
-0.28,0.05,8.65,-0.53,-0.3,-1.42,-0.02,0.0,-0.01,2529,2019-03-25 16:50:12:246
-0.28,0.05,8.65,-0.53,-0.3,-1.42,-0.02,0.0,-0.01,2534,2019-03-25 16:50:12:251
-0.28,0.05,8.65,-0.53,-0.3,-1.42,-0.02,0.0,-0.01,2540,2019-03-25 16:50:12:257
-0.28,0.05,8.65,-0.53,-0.3,-1.42,-0.02,0.0,-0.01,2546,2019-03-25 16:50:12:263
-0.28,0.05,8.65,-0.53,-0.3,-1.42,-0.02,0.0,-0.01,2550,2019-03-25 16:50:12:267
-0.28,0.05,8.65,-0.53,-0.3,-1.42,-0.02,0.0,-0.01,2555,2019-03-25 16:50:12:272
-0.62,0.18,10.59,-0.86,-0.06,0.19,-0.02,-0.02,0.0,2560,2019-03-25 16:50:12:277
-0.62,0.18,10.59,-0.86,-0.06,0.19,-0.02,-0.02,0.0,2565,2019-03-25 16:50:12:282
-0.62,0.18,10.59,-0.86,-0.06,0.19,0.03,-0.01,-0.01,2570,2019-03-25 16:50:12:287
0.07,-0.23,8.82,-0.86,-0.06,0.19,0.03,-0.01,-0.01,2575,2019-03-25 16:50:12:292
0.07,-0.23,8.82,-0.86,-0.06,0.19,0.03,-0.01,-0.01,2580,2019-03-25 16:50:12:297
0.07,-0.23,8.82,-0.86,-0.06,0.19,0.03,-0.01,-0.01,2588,2019-03-25 16:50:12:305
0.07,-0.23,8.82,-0.86,-0.06,0.19,0.03,-0.01,-0.01,2591,2019-03-25 16:50:12:308
0.07,-0.23,8.82,-0.86,-0.06,0.19,0.03,-0.01,-0.01,2594,2019-03-25 16:50:12:311
-0.47,0.25,8.46,-0.5,0.04,-1.34,0.0,0.0,-0.02,2600,2019-03-25 16:50:12:317
-0.47,0.25,8.46,-0.5,0.04,-1.34,0.0,0.0,-0.02,2605,2019-03-25 16:50:12:322
-0.47,0.25,8.46,-0.5,0.04,-1.34,0.0,0.0,-0.02,2611,2019-03-25 16:50:12:328
-0.47,0.25,8.46,-0.5,0.04,-1.34,0.0,0.0,-0.02,2615,2019-03-25 16:50:12:332
1.94,0.17,13.21,1.81,-0.1,3.12,-0.03,0.01,-0.02,2620,2019-03-25 16:50:12:337
1.94,0.17,13.21,1.81,-0.1,3.12,-0.03,0.01,-0.02,2625,2019-03-25 16:50:12:342
1.94,0.17,13.21,1.81,-0.1,3.12,-0.03,0.01,-0.02,2629,2019-03-25 16:50:12:346
1.94,0.17,13.21,1.81,-0.1,3.12,-0.03,0.01,-0.02,2635,2019-03-25 16:50:12:352
1.97,-0.88,9.63,1.67,-1.06,-0.45,-0.02,0.0,-0.04,2640,2019-03-25 16:50:12:357
1.97,-0.88,9.63,1.67,-1.06,-0.45,-0.02,0.0,-0.04,2647,2019-03-25 16:50:12:364
1.97,-0.88,9.63,1.67,-1.06,-0.45,-0.02,0.0,-0.04,2651,2019-03-25 16:50:12:368
0.95,-0.92,9.05,0.48,-0.9,-0.97,-0.03,-0.05,-0.09,2655,2019-03-25 16:50:12:372
0.95,-0.92,9.05,0.48,-0.9,-0.97,-0.03,-0.05,-0.09,2660,2019-03-25 16:50:12:377
0.95,-0.92,9.05,0.48,-0.9,-0.97,-0.03,-0.05,-0.09,2670,2019-03-25 16:50:12:387
0.95,-0.92,9.05,0.48,-0.9,-0.97,-0.03,-0.05,-0.09,2671,2019-03-25 16:50:12:388
0.95,-0.92,9.05,0.48,-0.9,-0.97,-0.03,-0.05,-0.09,2675,2019-03-25 16:50:12:392
0.19,-0.63,10.16,-0.3,-0.36,0.4,-0.06,0.0,-0.14,2681,2019-03-25 16:50:12:398
0.19,-0.63,10.16,-0.3,-0.36,0.4,-0.06,0.0,-0.14,2685,2019-03-25 16:50:12:402
0.19,-0.63,10.16,-0.3,-0.36,0.4,-0.06,0.0,-0.14,2692,2019-03-25 16:50:12:409
0.19,-0.63,10.16,-0.3,-0.36,0.4,-0.06,0.0,-0.14,2695,2019-03-25 16:50:12:412
-1.98,-0.08,9.38,-2.32,0.17,-0.38,0.0,0.0,-0.1,2701,2019-03-25 16:50:12:418
-1.98,-0.08,9.38,-2.32,0.17,-0.38,0.0,0.0,-0.1,2705,2019-03-25 16:50:12:422
-1.98,-0.08,9.38,-2.32,0.17,-0.38,0.0,0.0,-0.1,2712,2019-03-25 16:50:12:429
-1.98,-0.08,9.38,-2.32,0.17,-0.38,0.0,0.0,-0.1,2714,2019-03-25 16:50:12:431
-1.71,-2.29,9.65,-1.73,-1.86,-0.18,0.02,0.03,0.11,2720,2019-03-25 16:50:12:437
-1.71,-2.29,9.65,-1.73,-1.86,-0.18,0.02,0.03,0.11,2725,2019-03-25 16:50:12:442
-1.71,-2.29,9.65,-1.73,-1.86,-0.18,0.02,0.03,0.11,2731,2019-03-25 16:50:12:448
-0.73,-2.03,11.15,-0.62,-1.45,1.08,-0.01,0.02,0.39,2735,2019-03-25 16:50:12:452
-0.73,-2.03,11.15,-0.62,-1.45,1.08,-0.01,0.02,0.39,2742,2019-03-25 16:50:12:459
-0.73,-2.03,11.15,-0.62,-1.45,1.08,-0.01,0.02,0.39,2745,2019-03-25 16:50:12:462
-0.97,-2.28,9.65,-0.62,-1.45,1.08,0.09,0.02,0.6,2750,2019-03-25 16:50:12:467
-0.97,-2.28,9.65,-0.73,-1.48,-0.35,0.09,0.02,0.6,2756,2019-03-25 16:50:12:473
-0.97,-2.28,9.65,-0.73,-1.48,-0.35,0.09,0.02,0.6,2762,2019-03-25 16:50:12:479
-0.97,-2.28,9.65,-0.73,-1.48,-0.35,0.09,0.02,0.6,2765,2019-03-25 16:50:12:482
-0.09,2.53,10.27,0.19,3.22,0.19,0.13,0.09,0.78,2770,2019-03-25 16:50:12:487
-0.09,2.53,10.27,0.19,3.22,0.19,0.13,0.09,0.78,2775,2019-03-25 16:50:12:492
-0.09,2.53,10.27,0.19,3.22,0.19,0.13,0.09,0.78,2780,2019-03-25 16:50:12:497
-0.09,2.53,10.27,0.19,3.22,0.19,0.13,0.09,0.78,2788,2019-03-25 16:50:12:505
-0.79,2.02,10.68,-0.33,2.48,0.48,0.14,0.15,0.76,2792,2019-03-25 16:50:12:509
-0.79,2.02,10.68,-0.33,2.48,0.48,0.14,0.15,0.76,2797,2019-03-25 16:50:12:514
-0.79,2.02,10.68,-0.33,2.48,0.48,0.14,0.15,0.76,2806,2019-03-25 16:50:12:523
-0.96,3.18,10.05,-0.37,3.34,0.01,0.1,0.0,0.62,2808,2019-03-25 16:50:12:525
-0.96,3.18,10.05,-0.37,3.34,0.01,0.1,0.0,0.62,2810,2019-03-25 16:50:12:527
-0.96,3.18,10.05,-0.37,3.34,0.01,0.1,0.0,0.62,2815,2019-03-25 16:50:12:532
-0.96,3.18,10.05,-0.37,3.34,0.01,0.1,0.0,0.62,2820,2019-03-25 16:50:12:537
-0.96,3.18,10.05,-0.37,3.34,0.01,0.1,0.0,0.62,2825,2019-03-25 16:50:12:542
-0.38,1.6,6.54,0.54,1.49,-3.31,0.19,0.09,0.42,2830,2019-03-25 16:50:12:547
-0.38,1.6,6.54,0.54,1.49,-3.31,0.19,0.09,0.42,2835,2019-03-25 16:50:12:552
-0.38,1.6,6.54,0.54,1.49,-3.31,0.19,0.09,0.42,2840,2019-03-25 16:50:12:557
-0.38,1.6,6.54,0.54,1.49,-3.31,0.19,0.09,0.42,2845,2019-03-25 16:50:12:562
-0.38,1.6,6.54,0.54,1.49,-3.31,0.19,0.09,0.42,2850,2019-03-25 16:50:12:567
-0.38,1.6,6.54,0.54,1.49,-3.31,0.19,0.09,0.42,2855,2019-03-25 16:50:12:572
-0.38,1.6,6.54,0.54,1.49,-3.31,0.19,0.09,0.42,2861,2019-03-25 16:50:12:578
1.72,1.19,11.43,2.5,0.9,1.41,0.0,-0.02,0.4,2865,2019-03-25 16:50:12:582
1.72,1.19,11.43,2.5,0.9,1.41,0.0,-0.02,0.4,2870,2019-03-25 16:50:12:587
1.72,1.19,11.43,2.5,0.9,1.41,0.0,-0.02,0.4,2878,2019-03-25 16:50:12:595
1.72,1.19,11.43,2.5,0.9,1.41,0.0,-0.02,0.4,2880,2019-03-25 16:50:12:597
3.7,0.41,4.66,4.17,0.0,-5.05,-0.02,0.02,0.39,2884,2019-03-25 16:50:12:601
3.7,0.41,4.66,4.17,0.0,-5.05,-0.02,0.02,0.39,2890,2019-03-25 16:50:12:607
3.7,0.41,4.66,4.17,0.0,-5.05,-0.02,0.02,0.39,2896,2019-03-25 16:50:12:613
3.7,0.41,4.66,4.17,0.0,-5.05,-0.02,0.02,0.39,2900,2019-03-25 16:50:12:617
3.7,0.41,4.66,4.17,0.0,-5.05,-0.02,0.02,0.39,2905,2019-03-25 16:50:12:622
3.7,0.41,4.66,4.17,0.0,-5.05,-0.02,0.02,0.39,2911,2019-03-25 16:50:12:628
3.7,0.41,4.66,4.17,0.0,-5.05,-0.02,0.02,0.39,2915,2019-03-25 16:50:12:632
2.2,0.0,7.63,1.96,-0.97,-2.27,0.09,0.0,0.18,2920,2019-03-25 16:50:12:637
2.2,0.0,7.63,1.96,-0.97,-2.27,0.09,0.0,0.18,2925,2019-03-25 16:50:12:642
2.2,0.0,7.63,1.96,-0.97,-2.27,0.09,0.0,0.18,2930,2019-03-25 16:50:12:647
2.2,0.0,7.63,1.96,-0.97,-2.27,0.09,0.0,0.18,2936,2019-03-25 16:50:12:653
2.2,0.0,7.63,1.96,-0.97,-2.27,0.09,0.0,0.18,2940,2019-03-25 16:50:12:657
0.16,1.42,10.53,-0.21,0.16,1.0,0.0,0.0,0.03,2945,2019-03-25 16:50:12:662
0.16,1.42,10.53,-0.21,0.16,1.0,0.0,0.0,0.03,2950,2019-03-25 16:50:12:667
0.16,1.42,10.53,-0.21,0.16,1.0,0.0,0.0,0.03,2955,2019-03-25 16:50:12:672
0.16,1.42,10.53,-0.21,0.16,1.0,0.0,0.0,0.03,2962,2019-03-25 16:50:12:679
0.16,1.42,10.53,-0.21,0.16,1.0,0.0,0.0,0.03,2965,2019-03-25 16:50:12:682
2.77,1.52,8.85,2.1,-0.1,-0.75,-0.1,-0.01,-0.26,2970,2019-03-25 16:50:12:687
2.77,1.52,8.85,2.1,-0.1,-0.75,-0.1,-0.01,-0.26,2975,2019-03-25 16:50:12:692
3.35,0.71,9.32,2.3,-0.89,-0.17,-0.13,-0.11,-0.45,2980,2019-03-25 16:50:12:697
3.35,0.71,9.32,2.3,-0.89,-0.17,-0.13,-0.11,-0.45,2985,2019-03-25 16:50:12:702
3.35,0.71,9.32,2.3,-0.89,-0.17,-0.13,-0.11,-0.45,2990,2019-03-25 16:50:12:707
3.35,0.71,9.32,2.3,-0.89,-0.17,-0.11,-0.06,-0.57,2995,2019-03-25 16:50:12:712
3.35,0.71,9.32,2.3,-0.89,-0.17,-0.11,-0.06,-0.57,3000,2019-03-25 16:50:12:717
3.35,0.71,9.32,2.3,-0.89,-0.17,-0.11,-0.06,-0.57,3004,2019-03-25 16:50:12:721
1.11,0.5,10.38,-0.76,-0.68,0.79,-0.11,-0.05,-0.56,3011,2019-03-25 16:50:12:728
1.11,0.5,10.38,-0.76,-0.68,0.79,-0.11,-0.05,-0.56,3015,2019-03-25 16:50:12:732
1.11,0.5,10.38,-0.76,-0.68,0.79,-0.11,-0.05,-0.56,3023,2019-03-25 16:50:12:740
1.11,0.5,10.38,-0.76,-0.68,0.79,-0.11,-0.05,-0.56,3025,2019-03-25 16:50:12:742
1.11,0.5,10.38,-0.76,-0.68,0.79,-0.11,-0.05,-0.56,3030,2019-03-25 16:50:12:747
1.11,0.5,10.38,-0.76,-0.68,0.79,-0.11,-0.05,-0.56,3035,2019-03-25 16:50:12:752
1.11,0.5,10.38,-0.76,-0.68,0.79,-0.11,-0.05,-0.56,3040,2019-03-25 16:50:12:757
1.11,0.5,10.38,-0.76,-0.68,0.79,-0.11,-0.05,-0.56,3045,2019-03-25 16:50:12:762
0.18,1.54,8.72,-1.97,0.48,-0.94,-0.07,-0.02,-0.51,3049,2019-03-25 16:50:12:766
0.18,1.54,8.72,-1.97,0.48,-0.94,-0.07,-0.02,-0.51,3055,2019-03-25 16:50:12:772
0.18,1.54,8.72,-1.97,0.48,-0.94,-0.07,-0.02,-0.51,3059,2019-03-25 16:50:12:776
0.18,1.54,8.72,-1.97,0.48,-0.94,-0.07,-0.02,-0.51,3066,2019-03-25 16:50:12:783
0.18,1.54,8.72,-1.97,0.48,-0.94,-0.07,-0.02,-0.51,3070,2019-03-25 16:50:12:787
0.18,1.54,8.72,-1.97,0.48,-0.94,-0.07,-0.02,-0.51,3075,2019-03-25 16:50:12:792
0.18,1.54,8.72,-1.97,0.48,-0.94,-0.07,-0.02,-0.51,3080,2019-03-25 16:50:12:797
-0.21,1.15,7.37,-1.69,0.0,-2.59,0.03,0.02,-0.32,3085,2019-03-25 16:50:12:802
-0.21,1.15,7.37,-1.69,0.0,-2.59,0.03,0.02,-0.32,3090,2019-03-25 16:50:12:807
-0.21,1.15,7.37,-1.69,0.0,-2.59,0.03,0.02,-0.32,3095,2019-03-25 16:50:12:812
-1.94,-0.31,9.93,-3.18,-1.21,0.55,0.0,-0.01,-0.27,3100,2019-03-25 16:50:12:817
-1.94,-0.31,9.93,-3.18,-1.21,0.55,0.0,-0.01,-0.27,3105,2019-03-25 16:50:12:822
-1.94,-0.31,9.93,-3.18,-1.21,0.55,0.0,-0.01,-0.27,3112,2019-03-25 16:50:12:829
-1.94,-0.31,9.93,-3.18,-1.21,0.55,0.0,-0.01,-0.27,3115,2019-03-25 16:50:12:832
1.8,0.58,16.16,0.71,-0.25,6.2,0.0,0.04,-0.19,3120,2019-03-25 16:50:12:837
1.8,0.58,16.16,0.71,-0.25,6.2,0.0,0.04,-0.19,3125,2019-03-25 16:50:12:842
1.8,0.58,16.16,0.71,-0.25,6.2,0.14,0.06,-0.16,3130,2019-03-25 16:50:12:847
1.8,0.58,16.16,0.71,-0.25,6.2,0.14,0.06,-0.16,3135,2019-03-25 16:50:12:852
1.8,0.58,16.16,0.71,-0.25,6.2,0.14,0.06,-0.16,3140,2019-03-25 16:50:12:857
1.8,0.58,16.16,0.71,-0.25,6.2,0.14,0.06,-0.16,3145,2019-03-25 16:50:12:862
1.8,0.58,16.16,0.71,-0.25,6.2,0.14,0.06,-0.16,3150,2019-03-25 16:50:12:867
1.8,0.58,16.16,0.71,-0.25,6.2,0.14,0.06,-0.16,3155,2019-03-25 16:50:12:872
-1.31,-0.46,12.49,0.71,-0.25,6.2,0.0,-0.04,-0.1,3160,2019-03-25 16:50:12:877
-1.31,-0.46,12.49,-2.07,-0.97,2.67,0.0,-0.04,-0.1,3165,2019-03-25 16:50:12:882
-1.31,-0.46,12.49,-2.07,-0.97,2.67,0.0,-0.04,-0.1,3171,2019-03-25 16:50:12:888
-1.31,-0.46,12.49,-2.07,-0.97,2.67,0.0,-0.04,-0.1,3175,2019-03-25 16:50:12:892
0.11,-1.16,10.69,-0.39,-1.44,0.79,-0.01,0.02,-0.07,3180,2019-03-25 16:50:12:897
0.11,-1.16,10.69,-0.39,-1.44,0.79,-0.01,0.02,-0.07,3185,2019-03-25 16:50:12:902
0.11,-1.16,10.69,-0.03,-1.87,-2.42,0.0,-0.02,-0.03,3190,2019-03-25 16:50:12:907
0.11,-1.16,10.69,-0.03,-1.87,-2.42,0.0,-0.02,-0.03,3195,2019-03-25 16:50:12:912
0.11,-1.16,10.69,-0.03,-1.87,-2.42,0.0,-0.02,-0.03,3201,2019-03-25 16:50:12:918
0.11,-1.16,10.69,-0.03,-1.87,-2.42,0.0,-0.02,-0.03,3205,2019-03-25 16:50:12:922
0.11,-1.16,10.69,-0.03,-1.87,-2.42,0.0,-0.02,-0.03,3210,2019-03-25 16:50:12:927
0.11,-1.16,10.69,-0.03,-1.87,-2.42,0.0,-0.02,-0.03,3215,2019-03-25 16:50:12:932
0.11,-1.16,10.69,-0.03,-1.87,-2.42,0.0,-0.02,-0.03,3220,2019-03-25 16:50:12:937
0.34,-2.58,7.7,0.52,-2.33,-1.88,0.03,-0.01,-0.01,3225,2019-03-25 16:50:12:942
0.34,-2.58,7.7,0.52,-2.33,-1.88,0.03,-0.01,-0.01,3230,2019-03-25 16:50:12:947
0.34,-2.58,7.7,0.52,-2.33,-1.88,-0.18,-0.08,0.04,3235,2019-03-25 16:50:12:952
0.34,-2.58,7.7,0.52,-2.33,-1.88,-0.18,-0.08,0.04,3240,2019-03-25 16:50:12:957
0.34,-2.58,7.7,0.52,-2.33,-1.88,-0.18,-0.08,0.04,3245,2019-03-25 16:50:12:962
0.5,-3.7,12.86,0.59,-2.55,2.88,-0.12,-0.04,0.04,3250,2019-03-25 16:50:12:967
0.5,-3.7,12.86,0.59,-2.55,2.88,-0.12,-0.04,0.04,3255,2019-03-25 16:50:12:972
0.5,-3.7,12.86,0.59,-2.55,2.88,-0.12,-0.04,0.04,3260,2019-03-25 16:50:12:977
0.5,-3.7,12.86,0.59,-2.55,2.88,-0.12,-0.04,0.04,3265,2019-03-25 16:50:12:982
-0.48,-1.53,8.33,-0.42,-0.06,-1.58,0.07,-0.01,0.07,3270,2019-03-25 16:50:12:987
-0.48,-1.53,8.33,-0.42,-0.06,-1.58,0.07,-0.01,0.07,3275,2019-03-25 16:50:12:992
-0.48,-1.53,8.33,-0.42,-0.06,-1.58,0.07,-0.01,0.07,3280,2019-03-25 16:50:12:997
-0.48,-1.53,8.33,-0.42,-0.06,-1.58,0.07,-0.01,0.07,3285,2019-03-25 16:50:13:002
-0.48,-1.53,8.33,-0.42,-0.06,-1.58,0.07,-0.01,0.07,3290,2019-03-25 16:50:13:007
-1.29,1.23,11.25,-1.22,2.56,1.05,0.12,-0.02,0.14,3295,2019-03-25 16:50:13:012
-1.29,1.23,11.25,-1.22,2.56,1.05,0.12,-0.02,0.14,3301,2019-03-25 16:50:13:018
-1.29,1.23,11.25,-1.22,2.56,1.05,0.12,-0.02,0.14,3305,2019-03-25 16:50:13:022
-1.29,1.23,11.25,-1.22,2.56,1.05,0.12,-0.02,0.14,3310,2019-03-25 16:50:13:027
-1.29,1.23,11.25,-1.22,2.56,1.05,0.12,-0.02,0.14,3315,2019-03-25 16:50:13:032
-1.3,1.09,9.17,-0.91,2.27,-0.57,0.04,0.04,0.24,3321,2019-03-25 16:50:13:038
-1.3,1.09,9.17,-0.91,2.27,-0.57,0.04,0.04,0.24,3325,2019-03-25 16:50:13:042
-0.85,2.27,11.46,-0.91,2.27,-0.57,0.04,-0.02,0.36,3330,2019-03-25 16:50:13:047
-0.85,2.27,11.46,-0.91,2.27,-0.57,0.04,-0.02,0.36,3336,2019-03-25 16:50:13:053
-0.85,2.27,11.46,-0.91,2.27,-0.57,0.04,-0.02,0.36,3342,2019-03-25 16:50:13:059
-0.85,2.27,11.46,-0.91,2.27,-0.57,0.04,-0.02,0.36,3346,2019-03-25 16:50:13:063
-2.25,0.07,9.81,-1.69,0.87,-0.33,0.01,0.0,0.39,3350,2019-03-25 16:50:13:067
-2.25,0.07,9.81,-1.69,0.87,-0.33,0.01,0.0,0.39,3355,2019-03-25 16:50:13:072
-2.25,0.07,9.81,-1.69,0.87,-0.33,0.01,0.0,0.39,3363,2019-03-25 16:50:13:080
-2.25,0.07,9.81,-1.69,0.87,-0.33,0.01,0.0,0.39,3365,2019-03-25 16:50:13:082
0.43,0.84,9.61,0.98,1.44,-0.52,0.02,0.0,0.44,3370,2019-03-25 16:50:13:087
0.43,0.84,9.61,0.98,1.44,-0.52,0.02,0.0,0.44,3374,2019-03-25 16:50:13:091
0.43,0.84,9.61,0.98,1.44,-0.52,0.02,0.0,0.44,3382,2019-03-25 16:50:13:099
0.43,0.84,9.61,0.98,1.44,-0.52,0.02,0.0,0.44,3385,2019-03-25 16:50:13:102
-0.02,1.63,10.48,0.45,1.93,0.32,0.05,0.0,0.44,3390,2019-03-25 16:50:13:107
-0.02,1.63,10.48,0.45,1.93,0.32,0.05,0.0,0.44,3395,2019-03-25 16:50:13:112
-0.02,1.63,10.48,0.45,1.93,0.32,0.05,0.0,0.44,3402,2019-03-25 16:50:13:119
-0.02,1.63,10.48,0.45,1.93,0.32,0.05,0.0,0.44,3406,2019-03-25 16:50:13:123
1.09,0.39,8.17,1.55,0.36,-2.09,0.13,0.01,0.39,3415,2019-03-25 16:50:13:132
1.09,0.39,8.17,1.55,0.36,-2.09,0.13,0.01,0.39,3417,2019-03-25 16:50:13:134
1.09,0.39,8.17,1.55,0.36,-2.09,0.13,0.01,0.39,3420,2019-03-25 16:50:13:137
1.09,0.39,8.17,1.55,0.36,-2.09,0.13,0.01,0.39,3424,2019-03-25 16:50:13:141
1.09,0.39,8.17,1.55,0.36,-2.09,0.13,0.01,0.39,3430,2019-03-25 16:50:13:147
1.09,0.39,8.17,1.55,0.36,-2.09,0.13,0.01,0.39,3435,2019-03-25 16:50:13:152
0.46,2.13,13.26,0.96,1.58,2.86,0.02,0.03,0.44,3440,2019-03-25 16:50:13:157
0.46,2.13,13.26,0.96,1.58,2.86,0.02,0.03,0.44,3445,2019-03-25 16:50:13:162
0.46,2.13,13.26,0.96,1.58,2.86,0.02,0.03,0.44,3450,2019-03-25 16:50:13:167
0.46,2.13,13.26,0.96,1.58,2.86,0.02,0.03,0.44,3455,2019-03-25 16:50:13:172
0.27,0.65,10.34,0.63,-0.35,0.18,-0.02,0.0,0.42,3460,2019-03-25 16:50:13:177
0.27,0.65,10.34,0.63,-0.35,0.18,-0.02,0.0,0.42,3465,2019-03-25 16:50:13:182
-0.15,0.97,9.85,0.63,-0.35,0.18,0.11,0.02,0.37,3471,2019-03-25 16:50:13:188
-0.15,0.97,9.85,-0.13,-0.45,-0.35,0.11,0.02,0.37,3475,2019-03-25 16:50:13:192
-0.15,0.97,9.85,-0.13,-0.45,-0.35,0.11,0.02,0.37,3480,2019-03-25 16:50:13:197
-0.15,0.97,9.85,-0.13,-0.45,-0.35,0.11,0.02,0.37,3484,2019-03-25 16:50:13:201
0.19,1.11,8.88,0.14,-0.31,-1.2,0.13,-0.02,0.28,3490,2019-03-25 16:50:13:207
0.19,1.11,8.88,0.14,-0.31,-1.2,0.13,-0.02,0.28,3495,2019-03-25 16:50:13:212
0.19,1.11,8.88,0.14,-0.31,-1.2,0.13,-0.02,0.28,3500,2019-03-25 16:50:13:217
0.19,1.11,8.88,0.14,-0.31,-1.2,0.13,-0.02,0.28,3504,2019-03-25 16:50:13:221
0.19,1.11,8.88,0.14,-0.31,-1.2,0.13,-0.02,0.28,3510,2019-03-25 16:50:13:227
2.5,0.74,7.94,2.02,-0.52,-1.97,0.0,0.01,0.18,3515,2019-03-25 16:50:13:232
2.5,0.74,7.94,2.02,-0.52,-1.97,0.0,0.01,0.18,3520,2019-03-25 16:50:13:237
2.5,0.74,7.94,2.02,-0.52,-1.97,0.0,0.01,0.18,3525,2019-03-25 16:50:13:242
2.5,0.74,7.94,2.02,-0.52,-1.97,0.0,0.01,0.18,3530,2019-03-25 16:50:13:247
2.5,0.74,7.94,2.02,-0.52,-1.97,0.0,0.01,0.18,3535,2019-03-25 16:50:13:252
-0.06,1.39,11.21,-0.73,0.17,1.21,-0.12,0.01,0.03,3540,2019-03-25 16:50:13:257
-0.06,1.39,11.21,-0.73,0.17,1.21,-0.12,0.01,0.03,3545,2019-03-25 16:50:13:262
-0.06,1.39,11.21,-0.73,0.17,1.21,-0.12,0.01,0.03,3550,2019-03-25 16:50:13:267
-0.06,1.39,11.21,-0.73,0.17,1.21,-0.12,0.01,0.03,3555,2019-03-25 16:50:13:272
0.23,0.4,8.62,-0.68,-0.72,-1.33,-0.02,-0.02,-0.19,3561,2019-03-25 16:50:13:278
0.23,0.4,8.62,-0.68,-0.72,-1.33,-0.02,-0.02,-0.19,3566,2019-03-25 16:50:13:283
0.23,0.4,8.62,-0.68,-0.72,-1.33,-0.02,-0.02,-0.19,3570,2019-03-25 16:50:13:287
0.23,0.4,8.62,-0.68,-0.72,-1.33,-0.02,-0.02,-0.19,3575,2019-03-25 16:50:13:292
2.95,-0.6,8.58,1.81,-1.61,-1.39,-0.14,-0.01,-0.28,3580,2019-03-25 16:50:13:297
2.95,-0.6,8.58,1.81,-1.61,-1.39,-0.14,-0.01,-0.28,3586,2019-03-25 16:50:13:303
2.95,-0.6,8.58,1.81,-1.61,-1.39,-0.14,-0.01,-0.28,3590,2019-03-25 16:50:13:307
1.92,0.3,8.09,0.59,-0.58,-1.78,-0.11,0.01,-0.32,3596,2019-03-25 16:50:13:313
1.92,0.3,8.09,0.59,-0.58,-1.78,-0.11,0.01,-0.32,3600,2019-03-25 16:50:13:317
1.92,0.3,8.09,0.59,-0.58,-1.78,-0.11,0.01,-0.32,3605,2019-03-25 16:50:13:322
1.92,0.3,8.09,0.59,-0.58,-1.78,-0.11,0.01,-0.32,3609,2019-03-25 16:50:13:326
1.92,0.3,8.09,0.59,-0.58,-1.78,-0.11,0.01,-0.32,3615,2019-03-25 16:50:13:332
0.08,2.17,12.02,-1.26,1.24,1.68,-0.12,-0.03,-0.28,3620,2019-03-25 16:50:13:337
0.08,2.17,12.02,-1.26,1.24,1.68,-0.12,-0.03,-0.28,3626,2019-03-25 16:50:13:343
-1.14,2.0,10.56,-2.41,1.13,0.24,-0.04,0.0,-0.21,3633,2019-03-25 16:50:13:350
-1.14,2.0,10.56,-2.41,1.13,0.24,-0.04,0.0,-0.21,3635,2019-03-25 16:50:13:352
-1.14,2.0,10.56,-2.41,1.13,0.24,-0.04,0.0,-0.21,3641,2019-03-25 16:50:13:358
-1.14,2.0,10.56,-2.41,1.13,0.24,-0.04,0.0,-0.21,3645,2019-03-25 16:50:13:362
-1.14,2.0,10.56,-2.41,1.13,0.24,-0.04,0.0,-0.21,3651,2019-03-25 16:50:13:368
0.21,2.25,8.89,-0.91,1.21,-1.21,0.1,-0.03,-0.16,3655,2019-03-25 16:50:13:372
0.21,2.25,8.89,-0.91,1.21,-1.21,0.1,-0.03,-0.16,3660,2019-03-25 16:50:13:377
0.21,2.25,8.89,-0.91,1.21,-1.21,0.1,-0.03,-0.16,3665,2019-03-25 16:50:13:382
0.21,2.25,8.89,-0.91,1.21,-1.21,0.1,-0.03,-0.16,3670,2019-03-25 16:50:13:387
0.18,2.47,11.21,-0.6,1.36,1.08,0.07,-0.07,-0.12,3675,2019-03-25 16:50:13:392
0.18,2.47,11.21,-0.6,1.36,1.08,0.07,-0.07,-0.12,3681,2019-03-25 16:50:13:398
0.18,2.47,11.21,-0.6,1.36,1.08,0.07,-0.07,-0.12,3690,2019-03-25 16:50:13:407
0.18,2.47,11.21,-0.6,1.36,1.08,0.07,-0.07,-0.12,3694,2019-03-25 16:50:13:411
0.18,2.47,11.21,-0.6,1.36,1.08,0.07,-0.07,-0.12,3694,2019-03-25 16:50:13:411
1.03,1.18,11.13,0.2,0.05,0.85,0.02,-0.03,-0.08,3700,2019-03-25 16:50:13:417
1.03,1.18,11.13,0.2,0.05,0.85,0.02,-0.03,-0.08,3708,2019-03-25 16:50:13:425
1.03,1.18,11.13,0.2,0.05,0.85,0.02,-0.03,-0.08,3710,2019-03-25 16:50:13:427
1.03,1.18,11.13,0.2,0.05,0.85,0.02,-0.03,-0.08,3715,2019-03-25 16:50:13:432
0.26,-0.39,10.17,-0.4,-1.47,-0.23,0.02,0.02,-0.03,3720,2019-03-25 16:50:13:437
0.26,-0.39,10.17,-0.4,-1.47,-0.23,0.02,0.02,-0.03,3726,2019-03-25 16:50:13:443
0.26,-0.39,10.17,-0.4,-1.47,-0.23,0.02,0.02,-0.03,3730,2019-03-25 16:50:13:447
0.26,-0.39,10.17,-0.4,-1.47,-0.23,0.02,0.02,-0.03,3735,2019-03-25 16:50:13:452
0.26,-0.39,10.17,-0.4,-1.47,-0.23,0.02,0.02,-0.03,3740,2019-03-25 16:50:13:457
0.26,-0.39,10.17,-0.4,-1.47,-0.23,0.02,0.02,-0.03,3746,2019-03-25 16:50:13:463
0.26,-0.39,10.17,-0.4,-1.47,-0.23,0.02,0.02,-0.03,3751,2019-03-25 16:50:13:468
0.44,-0.85,7.09,-0.02,-1.73,-3.09,0.08,0.01,0.06,3754,2019-03-25 16:50:13:471
0.44,-0.85,7.09,-0.02,-1.73,-3.09,0.08,0.01,0.06,3765,2019-03-25 16:50:13:482
0.44,-0.85,7.09,-0.02,-1.73,-3.09,0.08,0.01,0.06,3765,2019-03-25 16:50:13:482
0.44,-0.85,7.09,-0.02,-1.73,-3.09,0.08,0.01,0.06,3773,2019-03-25 16:50:13:490
0.44,-0.85,7.09,-0.02,-1.73,-3.09,0.08,0.01,0.06,3775,2019-03-25 16:50:13:492
-0.29,-0.94,10.67,-0.5,-1.79,0.48,0.02,0.0,0.11,3780,2019-03-25 16:50:13:497
-0.29,-0.94,10.67,-0.5,-1.79,0.48,0.02,0.0,0.11,3786,2019-03-25 16:50:13:503
-0.29,-0.94,10.67,-0.5,-1.79,0.48,0.02,0.0,0.11,3793,2019-03-25 16:50:13:510
0.03,-0.59,8.59,0.07,-1.31,-1.6,0.04,0.01,0.11,3795,2019-03-25 16:50:13:512
0.03,-0.59,8.59,0.07,-1.31,-1.6,0.04,0.01,0.11,3801,2019-03-25 16:50:13:518
0.03,-0.59,8.59,0.07,-1.31,-1.6,0.04,0.01,0.11,3805,2019-03-25 16:50:13:522
0.03,-0.59,8.59,0.07,-1.31,-1.6,0.04,0.01,0.11,3810,2019-03-25 16:50:13:527
0.03,-0.59,8.59,0.07,-1.31,-1.6,0.04,0.01,0.11,3815,2019-03-25 16:50:13:532
-0.53,-0.65,9.64,-0.4,-1.15,0.0,0.11,-0.04,0.09,3820,2019-03-25 16:50:13:537
-0.53,-0.65,9.64,-0.4,-1.15,0.0,0.11,-0.04,0.09,3826,2019-03-25 16:50:13:543
-0.53,-0.65,9.64,-0.4,-1.15,0.0,0.11,-0.04,0.09,3830,2019-03-25 16:50:13:547
-0.53,-0.65,9.64,-0.4,-1.15,0.0,0.11,-0.04,0.09,3835,2019-03-25 16:50:13:552
1.73,-0.08,11.41,1.66,-0.49,1.43,-0.05,-0.09,0.09,3841,2019-03-25 16:50:13:558
1.73,-0.08,11.41,1.66,-0.49,1.43,-0.05,-0.09,0.09,3845,2019-03-25 16:50:13:562
1.73,-0.08,11.41,1.66,-0.49,1.43,-0.05,-0.09,0.09,3852,2019-03-25 16:50:13:569
2.47,-1.29,11.55,2.28,-1.21,1.52,0.0,0.01,0.0,3855,2019-03-25 16:50:13:572
2.47,-1.29,11.55,2.28,-1.21,1.52,0.0,0.01,0.0,3863,2019-03-25 16:50:13:580
2.47,-1.29,11.55,2.28,-1.21,1.52,0.0,0.01,0.0,3865,2019-03-25 16:50:13:582
2.47,-1.29,11.55,2.28,-1.21,1.52,0.0,0.01,0.0,3870,2019-03-25 16:50:13:587
2.47,-1.29,11.55,2.28,-1.21,1.52,0.0,0.01,0.0,3875,2019-03-25 16:50:13:592
2.47,-1.29,11.55,2.28,-1.21,1.52,0.0,0.01,0.0,3881,2019-03-25 16:50:13:598
2.47,-1.29,11.55,2.28,-1.21,1.52,0.0,0.01,0.0,3885,2019-03-25 16:50:13:602
2.47,-1.29,11.55,2.28,-1.21,1.52,0.0,0.01,0.0,3890,2019-03-25 16:50:13:607
-1.28,-0.5,10.1,-1.6,0.14,0.23,0.04,0.0,0.04,3895,2019-03-25 16:50:13:612
-1.28,-0.5,10.1,-1.6,0.14,0.23,0.04,0.0,0.04,3900,2019-03-25 16:50:13:617
-1.28,-0.5,10.1,-1.6,0.14,0.23,0.04,0.0,0.04,3906,2019-03-25 16:50:13:623
0.85,-0.29,8.08,-1.6,0.14,0.23,0.04,0.0,0.04,3911,2019-03-25 16:50:13:628
0.85,-0.29,8.08,0.54,0.41,-1.77,0.01,0.01,0.01,3917,2019-03-25 16:50:13:634
0.85,-0.29,8.08,0.54,0.41,-1.77,0.01,0.01,0.01,3920,2019-03-25 16:50:13:637
0.85,-0.29,8.08,0.54,0.41,-1.77,0.01,0.01,0.01,3925,2019-03-25 16:50:13:642
-1.26,-0.49,11.83,-1.58,0.2,1.66,0.04,0.02,0.02,3930,2019-03-25 16:50:13:647
-1.26,-0.49,11.83,-1.58,0.2,1.66,0.04,0.02,0.02,3935,2019-03-25 16:50:13:652
-1.26,-0.49,11.83,-1.58,0.2,1.66,0.04,0.02,0.02,3940,2019-03-25 16:50:13:657
-1.26,-0.49,11.83,-1.58,0.2,1.66,0.04,0.02,0.02,3945,2019-03-25 16:50:13:662
-1.52,-1.18,10.03,-1.75,-0.4,-0.22,0.07,0.06,0.05,3951,2019-03-25 16:50:13:668
-1.52,-1.18,10.03,-1.75,-0.4,-0.22,0.07,0.06,0.05,3955,2019-03-25 16:50:13:672
-1.52,-1.18,10.03,-1.75,-0.4,-0.22,0.07,0.06,0.05,3960,2019-03-25 16:50:13:677
-1.52,-1.18,10.03,-1.75,-0.4,-0.22,0.07,0.06,0.05,3965,2019-03-25 16:50:13:682
-1.52,-1.18,10.03,-1.75,-0.4,-0.22,0.07,0.06,0.05,3970,2019-03-25 16:50:13:687
-1.52,-1.18,10.03,-1.75,-0.4,-0.22,0.07,0.06,0.05,3976,2019-03-25 16:50:13:693
-1.52,-1.18,10.03,-1.75,-0.4,-0.22,0.07,0.06,0.05,3980,2019-03-25 16:50:13:697
-1.36,1.32,8.83,-1.47,1.93,-1.39,0.19,0.05,0.16,3985,2019-03-25 16:50:13:702
-1.36,1.32,8.83,-1.47,1.93,-1.39,0.11,0.02,0.38,3990,2019-03-25 16:50:13:707
-1.36,1.32,8.83,-1.47,1.93,-1.39,0.11,0.02,0.38,3995,2019-03-25 16:50:13:712
-1.36,1.32,8.83,-1.54,2.07,-0.44,0.11,0.02,0.38,4001,2019-03-25 16:50:13:718
-1.36,1.32,8.83,-1.54,2.07,-0.44,0.11,0.02,0.38,4005,2019-03-25 16:50:13:722
-0.18,1.47,10.36,-1.54,2.07,-0.44,0.02,0.03,0.44,4010,2019-03-25 16:50:13:727
-0.18,1.47,10.36,-1.54,2.07,-0.44,0.02,0.03,0.44,4015,2019-03-25 16:50:13:732
-0.18,1.47,10.36,-1.54,2.07,-0.44,0.02,0.03,0.44,4020,2019-03-25 16:50:13:737
-0.18,1.47,10.36,-1.54,2.07,-0.44,0.02,0.03,0.44,4025,2019-03-25 16:50:13:742
-0.18,1.47,10.36,-1.54,2.07,-0.44,0.02,0.03,0.44,4030,2019-03-25 16:50:13:747
-0.18,1.47,10.36,-1.54,2.07,-0.44,0.02,0.03,0.44,4035,2019-03-25 16:50:13:752
0.02,1.43,10.45,0.1,1.48,0.5,0.05,0.06,0.45,4040,2019-03-25 16:50:13:757
0.02,1.43,10.45,0.1,1.48,0.5,0.05,0.06,0.45,4044,2019-03-25 16:50:13:761
0.02,1.43,10.45,0.1,1.48,0.5,0.11,0.01,0.45,4050,2019-03-25 16:50:13:767
0.02,1.43,10.45,0.1,1.48,0.5,0.11,0.01,0.45,4055,2019-03-25 16:50:13:772
-0.73,0.51,8.98,-0.26,0.05,-0.97,0.11,0.01,0.45,4060,2019-03-25 16:50:13:777
-0.73,0.51,8.98,-0.26,0.05,-0.97,0.11,0.01,0.45,4065,2019-03-25 16:50:13:782
-0.73,0.51,8.98,-0.26,0.05,-0.97,0.08,0.01,0.45,4070,2019-03-25 16:50:13:787
-0.73,0.51,8.98,-0.26,0.05,-0.97,0.08,0.01,0.45,4078,2019-03-25 16:50:13:795
-0.73,0.51,8.98,-0.26,0.05,-0.97,0.08,0.01,0.45,4080,2019-03-25 16:50:13:797
-0.73,0.51,8.98,-0.26,0.05,-0.97,0.08,0.01,0.45,4086,2019-03-25 16:50:13:803
0.76,0.78,8.83,1.19,0.16,-1.21,0.05,0.01,0.44,4090,2019-03-25 16:50:13:807
0.76,0.78,8.83,1.19,0.16,-1.21,0.05,0.01,0.44,4095,2019-03-25 16:50:13:812
0.76,0.78,8.83,1.19,0.16,-1.21,0.05,0.01,0.44,4101,2019-03-25 16:50:13:818
0.76,0.78,8.83,1.19,0.16,-1.21,0.05,0.01,0.44,4105,2019-03-25 16:50:13:822
1.25,1.68,12.13,1.65,0.93,2.1,0.05,-0.01,0.41,4110,2019-03-25 16:50:13:827
1.25,1.68,12.13,1.65,0.93,2.1,0.05,-0.01,0.41,4115,2019-03-25 16:50:13:832
1.25,1.68,12.13,1.65,0.93,2.1,0.05,-0.01,0.41,4120,2019-03-25 16:50:13:837
1.25,1.68,12.13,1.65,0.93,2.1,0.05,-0.01,0.41,4124,2019-03-25 16:50:13:841
2.14,-0.41,8.11,0.93,0.4,1.53,-0.05,-0.02,0.38,4130,2019-03-25 16:50:13:847
2.14,-0.41,8.11,0.93,0.4,1.53,-0.05,-0.02,0.38,4135,2019-03-25 16:50:13:852
2.14,-0.41,8.11,0.93,0.4,1.53,-0.05,-0.02,0.38,4140,2019-03-25 16:50:13:857
1.24,1.81,12.49,1.49,0.78,2.46,-0.04,0.02,0.31,4145,2019-03-25 16:50:13:862
1.24,1.81,12.49,1.49,0.78,2.46,-0.04,0.02,0.31,4150,2019-03-25 16:50:13:867
1.24,1.81,12.49,1.49,0.78,2.46,-0.04,0.02,0.31,4156,2019-03-25 16:50:13:873
1.24,1.81,12.49,1.49,0.78,2.46,-0.04,0.02,0.31,4160,2019-03-25 16:50:13:877
3.66,0.81,9.07,3.57,-0.34,-0.76,0.07,0.06,0.21,4165,2019-03-25 16:50:13:882
3.66,0.81,9.07,3.57,-0.34,-0.76,0.07,0.06,0.21,4170,2019-03-25 16:50:13:887
3.66,0.81,9.07,3.57,-0.34,-0.76,0.07,0.06,0.21,4176,2019-03-25 16:50:13:893
3.66,0.81,9.07,3.57,-0.34,-0.76,0.07,0.06,0.21,4180,2019-03-25 16:50:13:897
1.67,1.97,11.8,1.29,0.76,1.76,-0.03,0.01,0.16,4185,2019-03-25 16:50:13:902
1.67,1.97,11.8,1.29,0.76,1.76,-0.03,0.01,0.16,4191,2019-03-25 16:50:13:908
1.67,1.97,11.8,1.29,0.76,1.76,-0.03,0.01,0.16,4197,2019-03-25 16:50:13:914
1.67,1.97,11.8,1.29,0.76,1.76,-0.03,0.01,0.16,4200,2019-03-25 16:50:13:917
1.67,1.97,11.8,1.29,0.76,1.76,-0.03,0.01,0.16,4205,2019-03-25 16:50:13:922
1.67,1.97,11.8,1.29,0.76,1.76,-0.03,0.01,0.16,4210,2019-03-25 16:50:13:927
1.67,1.97,11.8,1.29,0.76,1.76,-0.03,0.01,0.16,4216,2019-03-25 16:50:13:933
1.67,1.97,11.8,1.29,0.76,1.76,-0.03,0.01,0.16,4220,2019-03-25 16:50:13:937
2.32,1.15,10.43,1.45,-0.03,0.61,-0.06,0.0,-0.24,4225,2019-03-25 16:50:13:942
2.32,1.15,10.43,1.45,-0.03,0.61,-0.06,0.0,-0.24,4230,2019-03-25 16:50:13:947
2.32,1.15,10.43,1.45,-0.03,0.61,-0.06,0.0,-0.24,4236,2019-03-25 16:50:13:953
2.32,1.15,10.43,1.45,-0.03,0.61,-0.06,0.0,-0.24,4241,2019-03-25 16:50:13:958
1.98,1.37,10.78,0.67,0.2,1.01,-0.1,-0.02,-0.48,4245,2019-03-25 16:50:13:962
1.98,1.37,10.78,0.67,0.2,1.01,-0.1,-0.02,-0.48,4250,2019-03-25 16:50:13:967
1.98,1.37,10.78,0.67,0.2,1.01,-0.1,-0.02,-0.48,4257,2019-03-25 16:50:13:974
1.98,1.37,10.78,0.67,0.2,1.01,-0.1,-0.02,-0.48,4261,2019-03-25 16:50:13:978
1.98,1.37,10.78,0.67,0.2,1.01,-0.1,-0.02,-0.48,4264,2019-03-25 16:50:13:981
-0.45,0.11,8.9,-2.08,-1.11,-0.49,-0.14,-0.08,-0.51,4270,2019-03-25 16:50:13:987
-0.45,0.11,8.9,-2.08,-1.11,-0.49,-0.14,-0.08,-0.51,4276,2019-03-25 16:50:13:993
-0.45,0.11,8.9,-2.08,-1.11,-0.49,-0.14,-0.08,-0.51,4280,2019-03-25 16:50:13:997
-0.45,0.11,8.9,-2.08,-1.11,-0.49,-0.14,-0.08,-0.51,4285,2019-03-25 16:50:14:002
-0.45,0.11,8.9,-2.08,-1.11,-0.49,-0.14,-0.08,-0.51,4291,2019-03-25 16:50:14:008
-0.45,0.11,8.9,-2.08,-1.11,-0.49,-0.14,-0.08,-0.51,4295,2019-03-25 16:50:14:012
-0.45,0.11,8.9,-2.08,-1.11,-0.49,-0.14,-0.08,-0.51,4302,2019-03-25 16:50:14:019
-0.45,0.11,8.9,-2.08,-1.11,-0.49,-0.14,-0.08,-0.51,4305,2019-03-25 16:50:14:022
0.49,-0.49,10.79,-1.05,-1.53,0.73,-0.08,0.02,-0.44,4310,2019-03-25 16:50:14:027
0.49,-0.49,10.79,-1.05,-1.53,0.73,-0.08,0.02,-0.44,4315,2019-03-25 16:50:14:032
0.49,-0.49,10.79,-1.05,-1.53,0.73,-0.05,0.11,-0.24,4320,2019-03-25 16:50:14:037
0.07,-1.53,9.07,-1.33,-2.27,-0.55,-0.05,0.11,-0.24,4325,2019-03-25 16:50:14:042
0.07,-1.53,9.07,-1.33,-2.27,-0.55,-0.09,0.01,-0.02,4330,2019-03-25 16:50:14:047
0.07,-1.53,9.07,-1.33,-2.27,-0.55,-0.09,0.01,-0.02,4335,2019-03-25 16:50:14:052
0.07,-1.53,9.07,-1.33,-2.27,-0.55,-0.09,0.01,-0.02,4340,2019-03-25 16:50:14:057
0.07,-1.53,9.07,-1.33,-2.27,-0.55,-0.09,0.01,-0.02,4345,2019-03-25 16:50:14:062
-1.23,0.24,8.21,-2.22,-0.44,-1.68,0.1,0.02,0.02,4350,2019-03-25 16:50:14:067
-1.23,0.24,8.21,-2.22,-0.44,-1.68,0.1,0.02,0.02,4355,2019-03-25 16:50:14:072
-1.23,0.24,8.21,-2.22,-0.44,-1.68,0.1,0.02,0.02,4361,2019-03-25 16:50:14:078
-1.23,0.24,8.21,-2.22,-0.44,-1.68,0.1,0.02,0.02,4365,2019-03-25 16:50:14:082
-1.67,0.52,10.64,-2.27,0.0,0.77,0.0,-0.02,0.14,4370,2019-03-25 16:50:14:087
-1.67,0.52,10.64,-2.27,0.0,0.77,0.0,-0.02,0.14,4375,2019-03-25 16:50:14:092
-1.67,0.52,10.64,-2.27,0.0,0.77,0.0,-0.02,0.14,4380,2019-03-25 16:50:14:097
-1.67,0.52,10.64,-2.27,0.0,0.77,0.0,-0.02,0.14,4385,2019-03-25 16:50:14:102
-1.67,0.52,10.64,-2.27,0.0,0.77,0.0,-0.02,0.14,4390,2019-03-25 16:50:14:107
-1.67,0.52,10.64,-2.27,0.0,0.77,0.0,-0.02,0.14,4395,2019-03-25 16:50:14:112
-0.65,0.66,10.28,-1.02,0.17,0.17,0.0,0.0,0.18,4400,2019-03-25 16:50:14:117
-0.65,0.66,10.28,-1.02,0.17,0.17,0.0,0.0,0.18,4405,2019-03-25 16:50:14:122
-0.65,0.66,10.28,-1.02,0.17,0.17,-0.01,-0.03,0.19,4413,2019-03-25 16:50:14:130
-0.65,0.66,10.28,-1.02,0.17,0.17,-0.01,-0.03,0.19,4415,2019-03-25 16:50:14:132
-0.65,0.66,10.28,-1.02,0.17,0.17,-0.01,-0.03,0.19,4421,2019-03-25 16:50:14:138
-0.65,0.66,10.28,-1.02,0.17,0.17,-0.01,-0.03,0.19,4426,2019-03-25 16:50:14:143
1.09,-0.36,12.14,1.16,-0.66,1.84,-0.01,0.02,0.23,4430,2019-03-25 16:50:14:147
1.09,-0.36,12.14,1.16,-0.66,1.84,-0.01,0.02,0.23,4435,2019-03-25 16:50:14:152
1.09,-0.36,12.14,1.16,-0.66,1.84,-0.01,0.02,0.23,4440,2019-03-25 16:50:14:157
1.09,-0.36,12.14,1.16,-0.66,1.84,-0.01,0.02,0.23,4445,2019-03-25 16:50:14:162
1.23,-0.55,7.28,1.46,-0.72,-3.25,0.15,0.0,0.2,4450,2019-03-25 16:50:14:167
1.23,-0.55,7.28,1.46,-0.72,-3.25,0.15,0.0,0.2,4455,2019-03-25 16:50:14:172
1.23,-0.55,7.28,1.46,-0.72,-3.25,0.15,0.0,0.2,4460,2019-03-25 16:50:14:177
1.23,-0.55,7.28,1.46,-0.72,-3.25,0.15,0.0,0.2,4465,2019-03-25 16:50:14:182
-2.07,-1.91,7.74,-1.67,-1.91,-2.53,0.07,0.0,0.21,4470,2019-03-25 16:50:14:187
-2.07,-1.91,7.74,-1.67,-1.91,-2.53,0.07,0.0,0.21,4475,2019-03-25 16:50:14:192
-2.07,-1.91,7.74,-1.67,-1.91,-2.53,0.07,0.0,0.21,4480,2019-03-25 16:50:14:197
-2.07,-1.91,7.74,-1.67,-1.91,-2.53,0.07,0.0,0.21,4485,2019-03-25 16:50:14:202
-2.07,-1.91,7.74,-1.67,-1.91,-2.53,0.07,0.0,0.21,4490,2019-03-25 16:50:14:207
-0.27,-0.28,13.5,0.01,-0.29,3.66,0.0,0.0,0.18,4495,2019-03-25 16:50:14:212
-0.27,-0.28,13.5,0.01,-0.29,3.66,0.0,0.0,0.18,4500,2019-03-25 16:50:14:217
-0.27,-0.28,13.5,0.01,-0.29,3.66,0.0,0.0,0.18,4505,2019-03-25 16:50:14:222
-0.27,-0.28,13.5,0.01,-0.29,3.66,0.0,0.0,0.18,4510,2019-03-25 16:50:14:227
3.5,0.11,8.82,3.65,0.1,-1.1,0.06,0.02,0.12,4515,2019-03-25 16:50:14:232
3.5,0.11,8.82,3.65,0.1,-1.1,0.06,0.02,0.12,4520,2019-03-25 16:50:14:237
3.5,0.11,8.82,3.65,0.1,-1.1,0.06,0.02,0.12,4525,2019-03-25 16:50:14:242
0.7,-0.72,10.2,0.79,-0.66,0.42,0.0,-0.02,0.11,4530,2019-03-25 16:50:14:247
0.7,-0.72,10.2,0.79,-0.66,0.42,0.0,-0.02,0.11,4535,2019-03-25 16:50:14:252
0.7,-0.72,10.2,0.79,-0.66,0.42,0.0,-0.02,0.11,4540,2019-03-25 16:50:14:257
0.7,-0.72,10.2,0.79,-0.66,0.42,0.0,-0.02,0.11,4545,2019-03-25 16:50:14:262
0.41,-0.15,8.94,0.33,0.02,-0.8,-0.01,-0.01,0.05,4550,2019-03-25 16:50:14:267
0.41,-0.15,8.94,0.33,0.02,-0.8,-0.01,-0.01,0.05,4555,2019-03-25 16:50:14:272
0.41,-0.15,8.94,0.33,0.02,-0.8,-0.01,-0.01,0.05,4560,2019-03-25 16:50:14:277
0.41,-0.15,8.94,0.33,0.02,-0.8,-0.01,-0.01,0.05,4565,2019-03-25 16:50:14:282
0.41,-0.15,8.94,0.33,0.02,-0.8,-0.01,-0.01,0.05,4570,2019-03-25 16:50:14:287
-0.18,-0.6,8.92,-0.51,-0.36,-0.76,-0.06,0.0,0.03,4575,2019-03-25 16:50:14:292
-0.18,-0.6,8.92,-0.51,-0.36,-0.76,-0.06,0.0,0.03,4580,2019-03-25 16:50:14:297
-0.18,-0.6,8.92,-0.51,-0.36,-0.76,-0.06,0.0,0.03,4587,2019-03-25 16:50:14:304
-0.18,-0.6,8.92,-0.51,-0.36,-0.76,-0.06,0.0,0.03,4590,2019-03-25 16:50:14:307
-0.18,-0.6,8.92,-0.51,-0.36,-0.76,-0.06,0.0,0.03,4595,2019-03-25 16:50:14:312
1.65,0.26,14.07,1.16,0.61,4.24,0.02,0.02,-0.02,4600,2019-03-25 16:50:14:317
1.65,0.26,14.07,1.16,0.61,4.24,0.02,0.02,-0.02,4606,2019-03-25 16:50:14:323
0.82,0.15,7.17,0.24,0.5,-2.32,0.08,0.01,-0.04,4610,2019-03-25 16:50:14:327
0.82,0.15,7.17,0.24,0.5,-2.32,0.08,0.01,-0.04,4617,2019-03-25 16:50:14:334
0.82,0.15,7.17,0.24,0.5,-2.32,0.08,0.01,-0.04,4623,2019-03-25 16:50:14:340
0.82,0.15,7.17,0.24,0.5,-2.32,0.08,0.01,-0.04,4625,2019-03-25 16:50:14:342
0.82,0.15,7.17,0.24,0.5,-2.32,0.08,0.01,-0.04,4630,2019-03-25 16:50:14:347
0.82,0.15,7.17,0.24,0.5,-2.32,0.08,0.01,-0.04,4635,2019-03-25 16:50:14:352
-1.65,1.28,10.83,-2.1,1.54,1.44,0.02,-0.05,0.06,4644,2019-03-25 16:50:14:361
-1.65,1.28,10.83,-2.1,1.54,1.44,0.02,-0.05,0.06,4645,2019-03-25 16:50:14:362
-0.68,0.18,9.47,-0.84,0.3,-0.11,0.14,-0.02,0.21,4653,2019-03-25 16:50:14:370
-0.68,0.18,9.47,-0.84,0.3,-0.11,0.14,-0.02,0.21,4655,2019-03-25 16:50:14:372
-0.68,0.18,9.47,-0.84,0.3,-0.11,0.14,-0.02,0.21,4660,2019-03-25 16:50:14:377
-0.68,0.18,9.47,-0.84,0.3,-0.11,0.14,-0.02,0.21,4665,2019-03-25 16:50:14:382
-0.68,0.18,9.47,-0.84,0.3,-0.11,0.14,-0.02,0.21,4670,2019-03-25 16:50:14:387
-0.68,0.18,9.47,-0.84,0.3,-0.11,0.14,-0.02,0.21,4675,2019-03-25 16:50:14:392
-0.51,1.35,11.02,-0.73,1.31,0.96,-0.03,-0.01,0.33,4681,2019-03-25 16:50:14:398
-0.51,1.35,11.02,-0.73,1.31,0.96,-0.03,-0.01,0.33,4689,2019-03-25 16:50:14:406
-0.51,1.35,11.02,-0.73,1.31,0.96,-0.03,-0.01,0.33,4690,2019-03-25 16:50:14:407
-0.51,1.35,11.02,-0.73,1.31,0.96,-0.03,-0.01,0.33,4696,2019-03-25 16:50:14:413
-0.07,-0.07,9.49,-0.22,-0.18,-0.33,0.0,0.01,0.35,4701,2019-03-25 16:50:14:418
-0.07,-0.07,9.49,-0.22,-0.18,-0.33,0.0,0.01,0.35,4707,2019-03-25 16:50:14:424
-0.07,-0.07,9.49,-0.22,-0.18,-0.33,0.0,0.01,0.35,4710,2019-03-25 16:50:14:427
-0.07,0.63,10.14,-0.22,-0.18,-0.33,0.0,0.01,0.35,4716,2019-03-25 16:50:14:433
-0.42,0.63,10.14,-0.37,0.45,0.27,0.02,0.0,0.42,4720,2019-03-25 16:50:14:437
-0.42,0.63,10.14,-0.37,0.45,0.27,0.02,0.0,0.42,4725,2019-03-25 16:50:14:442
-0.55,0.49,10.99,-0.37,0.45,0.27,0.0,0.0,0.46,4731,2019-03-25 16:50:14:448
-0.55,0.49,10.99,-0.37,0.45,0.27,0.0,0.0,0.46,4736,2019-03-25 16:50:14:453
-0.55,0.49,10.99,-0.37,0.45,0.27,0.0,0.0,0.46,4739,2019-03-25 16:50:14:456
-0.93,1.48,11.78,-0.37,0.15,1.05,-0.01,0.0,0.48,4745,2019-03-25 16:50:14:462
-0.93,1.48,11.78,-0.37,0.15,1.05,-0.01,0.0,0.48,4750,2019-03-25 16:50:14:467
-0.93,1.48,11.78,-0.37,0.15,1.05,-0.01,0.0,0.48,4755,2019-03-25 16:50:14:472
-0.95,0.52,11.4,-0.61,0.04,1.28,0.01,0.04,0.48,4760,2019-03-25 16:50:14:477
-0.95,0.52,11.4,-0.61,0.04,1.28,0.01,0.04,0.48,4766,2019-03-25 16:50:14:483
-0.95,0.52,11.4,-0.61,0.04,1.28,0.01,0.04,0.48,4770,2019-03-25 16:50:14:487
-0.95,0.52,11.4,-0.61,0.04,1.28,0.08,0.0,0.41,4775,2019-03-25 16:50:14:492
-0.95,0.52,11.4,-0.61,0.04,1.28,0.08,0.0,0.41,4780,2019-03-25 16:50:14:497
-0.95,0.52,11.4,-0.61,0.04,1.28,0.08,0.0,0.41,4785,2019-03-25 16:50:14:502
0.88,0.93,9.68,1.11,0.22,-0.31,0.09,0.03,0.38,4791,2019-03-25 16:50:14:508
0.88,0.93,9.68,1.11,0.22,-0.31,0.09,0.03,0.38,4801,2019-03-25 16:50:14:518
0.88,0.93,9.68,1.11,0.22,-0.31,0.09,0.03,0.38,4801,2019-03-25 16:50:14:518
0.88,0.93,9.68,1.11,0.22,-0.31,0.09,0.03,0.38,4805,2019-03-25 16:50:14:522
2.25,0.63,7.67,2.28,-0.12,-2.36,0.03,0.03,0.29,4810,2019-03-25 16:50:14:527
2.25,0.63,7.67,2.28,-0.12,-2.36,0.03,0.03,0.29,4815,2019-03-25 16:50:14:532
2.25,0.63,7.67,2.28,-0.12,-2.36,0.03,0.03,0.29,4820,2019-03-25 16:50:14:537
2.25,0.63,7.67,2.28,-0.12,-2.36,0.03,0.03,0.29,4825,2019-03-25 16:50:14:542
2.25,2.27,8.98,1.98,1.41,-0.89,-0.03,0.0,0.17,4830,2019-03-25 16:50:14:547
2.25,2.27,8.98,1.98,1.41,-0.89,-0.03,0.0,0.17,4835,2019-03-25 16:50:14:552
2.25,2.27,8.98,1.98,1.41,-0.89,-0.03,0.0,0.17,4840,2019-03-25 16:50:14:557
2.25,2.27,8.98,1.98,1.41,-0.89,-0.03,0.0,0.17,4845,2019-03-25 16:50:14:562
2.25,2.27,8.98,1.98,1.41,-0.89,-0.03,0.0,0.17,4849,2019-03-25 16:50:14:566
2.25,2.27,8.98,1.98,1.41,-0.89,-0.03,0.0,0.17,4855,2019-03-25 16:50:14:572
2.36,1.86,10.17,1.69,0.93,0.38,0.01,0.02,0.0,4860,2019-03-25 16:50:14:577
2.36,1.86,10.17,1.69,0.93,0.38,0.01,0.02,0.0,4865,2019-03-25 16:50:14:582
2.36,1.86,10.17,1.69,0.93,0.38,-0.05,-0.04,-0.26,4872,2019-03-25 16:50:14:589
2.36,1.86,10.17,1.69,0.93,0.38,-0.05,-0.04,-0.26,4875,2019-03-25 16:50:14:592
-0.2,0.53,11.91,-1.21,-0.51,2.33,-0.11,-0.09,-0.37,4881,2019-03-25 16:50:14:598
-0.2,0.53,11.91,-1.21,-0.51,2.33,-0.11,-0.09,-0.37,4885,2019-03-25 16:50:14:602
-0.2,0.53,11.91,-1.21,-0.51,2.33,-0.15,0.0,-0.41,4890,2019-03-25 16:50:14:607
-0.2,0.53,11.91,-1.21,-0.51,2.33,-0.15,0.0,-0.41,4895,2019-03-25 16:50:14:612
-0.2,0.53,11.91,-1.21,-0.51,2.33,-0.15,0.0,-0.41,4901,2019-03-25 16:50:14:618
-0.2,0.53,11.91,-1.21,-0.51,2.33,-0.15,0.0,-0.41,4905,2019-03-25 16:50:14:622
-0.2,0.53,11.91,-1.21,-0.51,2.33,-0.15,0.0,-0.41,4910,2019-03-25 16:50:14:627
-0.2,0.53,11.91,-1.21,-0.51,2.33,-0.15,0.0,-0.41,4915,2019-03-25 16:50:14:632
3.96,-0.88,5.97,2.46,-2.07,-3.73,0.03,0.0,-0.57,4920,2019-03-25 16:50:14:637
3.96,-0.88,5.97,2.46,-2.07,-3.73,0.03,0.0,-0.57,4925,2019-03-25 16:50:14:642
3.96,-0.88,5.97,2.46,-2.07,-3.73,-0.07,-0.06,-0.52,4930,2019-03-25 16:50:14:647
3.96,-0.88,5.97,-0.04,-0.92,2.26,-0.07,-0.06,-0.52,4936,2019-03-25 16:50:14:653
3.96,-0.88,5.97,-0.04,-0.92,2.26,-0.07,-0.06,-0.52,4940,2019-03-25 16:50:14:657
3.96,-0.88,5.97,-0.04,-0.92,2.26,-0.07,-0.06,-0.52,4946,2019-03-25 16:50:14:663
3.96,-0.88,5.97,-0.04,-0.92,2.26,-0.07,-0.06,-0.52,4950,2019-03-25 16:50:14:667
3.96,-0.88,5.97,-0.04,-0.92,2.26,-0.07,-0.06,-0.52,4955,2019-03-25 16:50:14:672
3.96,-0.88,5.97,-0.04,-0.92,2.26,-0.07,-0.06,-0.52,4960,2019-03-25 16:50:14:677
-0.21,0.53,9.99,-1.98,-0.51,0.24,-0.02,-0.02,-0.47,4965,2019-03-25 16:50:14:682
-0.21,0.53,9.99,-1.98,-0.51,0.24,-0.02,-0.02,-0.47,4970,2019-03-25 16:50:14:687
-0.21,0.53,9.99,-1.98,-0.51,0.24,-0.02,-0.02,-0.47,4975,2019-03-25 16:50:14:692
-1.19,0.44,10.52,-2.69,-0.58,0.66,-0.04,-0.02,-0.38,4979,2019-03-25 16:50:14:696
-1.19,0.44,10.52,-2.69,-0.58,0.66,-0.04,-0.02,-0.38,4984,2019-03-25 16:50:14:701
-1.19,0.44,10.52,-2.69,-0.58,0.66,-0.04,-0.02,-0.38,4990,2019-03-25 16:50:14:707
-1.19,0.44,10.52,-2.69,-0.58,0.66,-0.04,-0.02,-0.38,4994,2019-03-25 16:50:14:711
-1.21,0.44,9.39,-2.54,-0.52,-0.42,-0.02,0.0,-0.26,5000,2019-03-25 16:50:14:717
-1.21,0.44,9.39,-2.54,-0.52,-0.42,-0.02,0.0,-0.26,5005,2019-03-25 16:50:14:722
-1.21,0.44,9.39,-2.54,-0.52,-0.42,-0.07,-0.01,-0.13,5011,2019-03-25 16:50:14:728
-1.21,0.44,9.39,-0.84,-0.28,5.29,-0.07,-0.01,-0.13,5015,2019-03-25 16:50:14:732
-1.21,0.44,9.39,-0.84,-0.28,5.29,-0.07,-0.01,-0.13,5020,2019-03-25 16:50:14:737
-1.21,0.44,9.39,-0.84,-0.28,5.29,-0.07,-0.01,-0.13,5025,2019-03-25 16:50:14:742
-0.42,-0.23,12.74,-1.15,-0.93,2.15,0.06,0.07,0.0,5029,2019-03-25 16:50:14:746
-0.42,-0.23,12.74,-1.15,-0.93,2.15,0.06,0.07,0.0,5035,2019-03-25 16:50:14:752
-0.42,-0.23,12.74,-1.15,-0.93,2.15,0.06,0.07,0.0,5040,2019-03-25 16:50:14:757
-0.42,-0.23,12.74,-1.15,-0.93,2.15,0.06,0.07,0.0,5045,2019-03-25 16:50:14:762
-2.41,-1.95,5.31,-1.15,-0.93,2.15,0.17,0.01,0.08,5050,2019-03-25 16:50:14:767
-2.41,-1.95,5.31,-2.81,-2.37,-5.0,0.17,0.01,0.08,5055,2019-03-25 16:50:14:772
-2.41,-1.95,5.31,-2.81,-2.37,-5.0,0.17,0.01,0.08,5060,2019-03-25 16:50:14:777
-2.41,-1.95,5.31,-2.81,-2.37,-5.0,0.17,0.01,0.08,5066,2019-03-25 16:50:14:783
-1.31,1.46,11.88,-1.38,1.11,1.19,0.06,-0.01,0.22,5070,2019-03-25 16:50:14:787
-1.31,1.46,11.88,-1.38,1.11,1.19,0.06,-0.01,0.22,5076,2019-03-25 16:50:14:793
-1.31,1.46,11.88,-1.38,1.11,1.19,0.06,-0.01,0.22,5080,2019-03-25 16:50:14:797
-1.31,1.46,11.88,-1.38,1.11,1.19,0.06,-0.01,0.22,5085,2019-03-25 16:50:14:802
-1.6,-0.57,8.56,-1.58,-0.73,-1.81,0.16,0.01,0.19,5090,2019-03-25 16:50:14:807
-1.6,-0.57,8.56,-1.58,-0.73,-1.81,0.16,0.01,0.19,5095,2019-03-25 16:50:14:812
-1.6,-0.57,8.56,-1.58,-0.73,-1.81,0.16,0.01,0.19,5100,2019-03-25 16:50:14:817
-1.6,-0.57,8.56,-1.58,-0.73,-1.81,0.16,0.01,0.19,5105,2019-03-25 16:50:14:822
-1.6,-0.57,8.56,-1.58,-0.73,-1.81,0.16,0.01,0.19,5110,2019-03-25 16:50:14:827
-1.6,-0.57,8.56,-1.58,-0.73,-1.81,0.16,0.01,0.19,5115,2019-03-25 16:50:14:832
-1.6,-0.57,8.56,-1.58,-0.73,-1.81,0.16,0.01,0.19,5120,2019-03-25 16:50:14:837
1.34,-0.3,9.97,1.7,-0.36,-0.38,-0.01,0.04,0.25,5125,2019-03-25 16:50:14:842
1.34,-0.3,9.97,1.7,-0.36,-0.38,-0.01,0.04,0.25,5130,2019-03-25 16:50:14:847
1.34,-0.3,9.97,1.7,-0.36,-0.38,-0.01,0.04,0.25,5137,2019-03-25 16:50:14:854
1.34,-0.3,9.97,1.7,-0.36,-0.38,-0.01,0.04,0.25,5144,2019-03-25 16:50:14:861
1.8,-0.2,9.66,2.05,-0.28,-0.65,0.04,0.01,0.21,5146,2019-03-25 16:50:14:863
1.8,-0.2,9.66,2.05,-0.28,-0.65,0.04,0.01,0.21,5150,2019-03-25 16:50:14:867
1.8,-0.2,9.66,2.05,-0.28,-0.65,0.04,0.01,0.21,5155,2019-03-25 16:50:14:872
1.8,-0.2,9.66,2.05,-0.28,-0.65,0.04,0.01,0.21,5160,2019-03-25 16:50:14:877
-0.3,0.39,7.18,0.05,0.35,-2.88,0.01,0.0,0.21,5165,2019-03-25 16:50:14:882
-0.3,0.39,7.18,0.05,0.35,-2.88,0.01,0.0,0.21,5171,2019-03-25 16:50:14:888
-0.3,0.39,7.18,0.05,0.35,-2.88,0.01,0.0,0.21,5175,2019-03-25 16:50:14:892
0.23,-0.13,10.7,0.51,-0.04,0.67,-0.03,0.03,0.18,5180,2019-03-25 16:50:14:897
0.23,-0.13,10.7,0.51,-0.04,0.67,-0.03,0.03,0.18,5187,2019-03-25 16:50:14:904
0.23,-0.13,10.7,0.51,-0.04,0.67,-0.03,0.03,0.18,5190,2019-03-25 16:50:14:907
0.23,-0.13,10.7,0.51,-0.04,0.67,-0.03,0.03,0.18,5196,2019-03-25 16:50:14:913
0.23,-0.13,10.7,0.51,-0.04,0.67,-0.03,0.03,0.18,5200,2019-03-25 16:50:14:917
0.23,-0.13,10.7,0.51,-0.04,0.67,-0.03,0.03,0.18,5205,2019-03-25 16:50:14:922
0.7,0.64,8.9,0.61,0.73,-0.99,0.04,0.0,0.12,5212,2019-03-25 16:50:14:929
0.7,0.64,8.9,0.61,0.73,-0.99,0.04,0.0,0.12,5216,2019-03-25 16:50:14:933
0.7,0.64,8.9,0.61,0.73,-0.99,0.04,0.0,0.12,5220,2019-03-25 16:50:14:937
-0.96,0.2,9.93,-1.07,0.24,0.26,0.09,-0.01,0.05,5226,2019-03-25 16:50:14:943
-0.96,0.2,9.93,-1.07,0.24,0.26,0.09,-0.01,0.05,5230,2019-03-25 16:50:14:947
-0.96,0.2,9.93,-1.07,0.24,0.26,0.09,-0.01,0.05,5236,2019-03-25 16:50:14:953
-0.96,0.2,9.93,-1.07,0.24,0.26,0.09,-0.01,0.05,5240,2019-03-25 16:50:14:957
-0.96,0.2,9.93,-1.07,0.24,0.26,0.09,-0.01,0.05,5245,2019-03-25 16:50:14:962
-0.96,0.2,9.93,-1.07,0.24,0.26,0.09,-0.01,0.05,5251,2019-03-25 16:50:14:968
-0.96,0.2,9.93,-1.07,0.24,0.26,0.09,-0.01,0.05,5256,2019-03-25 16:50:14:973
-0.96,0.2,9.93,-1.07,0.24,0.26,0.09,-0.01,0.05,5261,2019-03-25 16:50:14:978
1.54,-0.08,7.74,1.24,-0.15,-2.06,-0.02,0.02,0.03,5265,2019-03-25 16:50:14:982
1.54,-0.08,7.74,1.24,-0.15,-2.06,-0.02,0.02,0.03,5270,2019-03-25 16:50:14:987
1.54,-0.08,7.74,1.24,-0.15,-2.06,-0.02,0.02,0.03,5276,2019-03-25 16:50:14:993
1.54,-0.08,7.74,1.24,-0.15,-2.06,-0.02,0.02,0.03,5281,2019-03-25 16:50:14:998
1.54,-0.08,7.74,1.24,-0.15,-2.06,-0.02,0.02,0.03,5285,2019-03-25 16:50:15:002
1.54,-0.08,7.74,1.24,-0.15,-2.06,-0.02,0.02,0.03,5290,2019-03-25 16:50:15:007
1.54,-0.08,7.74,1.24,-0.15,-2.06,-0.02,0.02,0.03,5295,2019-03-25 16:50:15:012
1.54,-0.08,7.74,1.24,-0.15,-2.06,-0.02,0.02,0.03,5300,2019-03-25 16:50:15:017
-0.03,0.4,9.37,-0.68,0.38,-0.34,-0.01,0.0,0.02,5305,2019-03-25 16:50:15:022
-0.03,0.4,9.37,-0.68,0.38,-0.34,-0.01,0.0,0.02,5310,2019-03-25 16:50:15:027
-0.03,0.4,9.37,-0.68,0.38,-0.34,-0.01,0.0,0.02,5315,2019-03-25 16:50:15:032
-0.03,0.4,9.37,-0.68,0.38,-0.34,-0.01,0.0,0.02,5325,2019-03-25 16:50:15:042
-0.03,0.4,9.37,-0.68,0.38,-0.34,-0.01,0.0,0.02,5325,2019-03-25 16:50:15:042
0.76,0.06,11.81,0.26,0.01,1.88,-0.08,0.0,-0.11,5330,2019-03-25 16:50:15:047
0.76,0.06,11.81,0.26,0.01,1.88,-0.08,0.0,-0.11,5335,2019-03-25 16:50:15:052
0.76,0.06,11.81,0.26,0.01,1.88,-0.08,0.0,-0.11,5340,2019-03-25 16:50:15:057
0.76,0.06,11.81,0.26,0.01,1.88,-0.08,0.0,-0.11,5346,2019-03-25 16:50:15:063
-0.19,-1.44,9.18,-0.8,-1.45,-0.84,0.03,-0.01,-0.07,5350,2019-03-25 16:50:15:067
-0.19,-1.44,9.18,-0.8,-1.45,-0.84,0.03,-0.01,-0.07,5356,2019-03-25 16:50:15:073
-0.19,-1.44,9.18,-0.8,-1.45,-0.84,0.03,-0.01,-0.07,5360,2019-03-25 16:50:15:077
-0.19,-1.44,9.18,-0.8,-1.45,-0.84,0.03,-0.01,-0.07,5365,2019-03-25 16:50:15:082
-0.19,-1.44,9.18,-0.8,-1.45,-0.84,0.03,-0.01,-0.07,5371,2019-03-25 16:50:15:088
-0.19,-1.44,9.18,-0.8,-1.45,-0.84,0.03,-0.01,-0.07,5375,2019-03-25 16:50:15:092
-1.79,1.45,13.29,-2.23,1.3,3.06,-0.03,-0.02,0.1,5380,2019-03-25 16:50:15:097
-1.79,1.45,13.29,-2.23,1.3,3.06,-0.03,-0.02,0.1,5385,2019-03-25 16:50:15:102
0.13,-0.03,8.02,-2.23,1.3,3.06,0.04,0.04,0.25,5391,2019-03-25 16:50:15:108
0.13,-0.03,8.02,-0.18,-0.14,-1.9,0.04,0.04,0.25,5395,2019-03-25 16:50:15:112
0.13,-0.03,8.02,-0.18,-0.14,-1.9,0.04,0.04,0.25,5400,2019-03-25 16:50:15:117
0.13,-0.03,8.02,-0.18,-0.14,-1.9,0.04,0.04,0.25,5405,2019-03-25 16:50:15:122
0.13,-0.03,8.02,-0.18,-0.14,-1.9,0.04,0.04,0.25,5410,2019-03-25 16:50:15:127
0.13,-0.03,8.02,-0.18,-0.14,-1.9,0.04,0.04,0.25,5415,2019-03-25 16:50:15:132
0.13,-0.03,8.02,-0.18,-0.14,-1.9,0.04,0.04,0.25,5420,2019-03-25 16:50:15:137
-1.07,0.95,11.93,-1.3,0.77,1.7,-0.03,0.02,0.37,5426,2019-03-25 16:50:15:143
-1.07,0.95,11.93,-1.3,0.77,1.7,-0.03,0.02,0.37,5430,2019-03-25 16:50:15:147
-1.07,0.95,11.93,-1.3,0.77,1.7,-0.03,0.02,0.37,5435,2019-03-25 16:50:15:152
-1.07,0.95,11.93,-1.3,0.77,1.7,-0.03,0.02,0.37,5440,2019-03-25 16:50:15:157
-0.29,0.84,9.19,-0.5,0.6,-0.84,0.09,0.02,0.35,5445,2019-03-25 16:50:15:162
-0.29,0.84,9.19,-0.5,0.6,-0.84,0.09,0.02,0.35,5450,2019-03-25 16:50:15:167
-0.29,0.84,9.19,-0.5,0.6,-0.84,0.09,0.02,0.35,5456,2019-03-25 16:50:15:173
-0.29,0.84,9.19,-0.5,0.6,-0.84,0.09,0.02,0.35,5460,2019-03-25 16:50:15:177
-0.48,1.36,8.88,-0.47,0.98,-1.28,0.03,0.0,0.36,5465,2019-03-25 16:50:15:182
-0.48,1.36,8.88,-0.47,0.98,-1.28,0.03,0.0,0.36,5471,2019-03-25 16:50:15:188
-0.48,1.36,8.88,-0.47,0.98,-1.28,0.03,0.0,0.36,5475,2019-03-25 16:50:15:192
-1.27,0.83,10.19,-1.07,0.38,-0.03,0.02,0.01,0.36,5480,2019-03-25 16:50:15:197
-1.27,0.83,10.19,-1.07,0.38,-0.03,0.02,0.01,0.36,5485,2019-03-25 16:50:15:202
-1.27,0.83,10.19,-1.07,0.38,-0.03,0.02,0.01,0.36,5489,2019-03-25 16:50:15:206
1.91,0.61,9.53,2.04,0.12,-0.71,-0.01,0.08,0.43,5495,2019-03-25 16:50:15:212
1.91,0.61,9.53,2.04,0.12,-0.71,-0.01,0.08,0.43,5500,2019-03-25 16:50:15:217
1.91,0.61,9.53,2.04,0.12,-0.71,-0.01,0.08,0.43,5504,2019-03-25 16:50:15:221
0.23,1.39,10.4,0.39,0.76,0.08,0.09,0.0,0.42,5510,2019-03-25 16:50:15:227
0.23,1.39,10.4,0.39,0.76,0.08,0.09,0.0,0.42,5515,2019-03-25 16:50:15:232
0.23,1.39,10.4,0.39,0.76,0.08,0.09,0.0,0.42,5520,2019-03-25 16:50:15:237
0.23,1.39,10.4,0.39,0.76,0.08,0.09,0.0,0.42,5525,2019-03-25 16:50:15:242
2.58,0.11,8.92,0.39,0.76,0.08,0.09,0.0,0.42,5530,2019-03-25 16:50:15:247
2.58,0.11,8.92,2.59,-0.47,-1.04,0.03,0.08,0.39,5536,2019-03-25 16:50:15:253
2.58,0.11,8.92,2.59,-0.47,-1.04,0.03,0.08,0.39,5540,2019-03-25 16:50:15:257
2.58,0.11,8.92,2.59,-0.47,-1.04,0.03,0.08,0.39,5544,2019-03-25 16:50:15:261
2.63,2.28,10.34,2.48,1.45,0.29,-0.07,0.01,0.24,5550,2019-03-25 16:50:15:267
2.63,2.28,10.34,2.48,1.45,0.29,-0.07,0.01,0.24,5555,2019-03-25 16:50:15:272
2.63,2.28,10.34,2.48,1.45,0.29,-0.07,0.01,0.24,5559,2019-03-25 16:50:15:276
2.63,2.28,10.34,2.48,1.45,0.29,-0.07,0.01,0.24,5565,2019-03-25 16:50:15:282
2.63,2.28,10.34,2.48,1.45,0.29,-0.07,0.01,0.24,5570,2019-03-25 16:50:15:287
2.63,2.28,10.34,2.48,1.45,0.29,-0.07,0.01,0.24,5575,2019-03-25 16:50:15:292
3.53,3.07,8.22,2.91,2.05,-1.56,-0.01,0.0,-0.02,5580,2019-03-25 16:50:15:297
3.53,3.07,8.22,2.91,2.05,-1.56,-0.01,0.0,-0.02,5585,2019-03-25 16:50:15:302
3.53,3.07,8.22,2.91,2.05,-1.56,-0.01,0.0,-0.02,5590,2019-03-25 16:50:15:307
3.22,2.97,7.93,2.25,1.67,-1.8,-0.07,-0.01,-0.31,5597,2019-03-25 16:50:15:314
3.22,2.97,7.93,2.25,1.67,-1.8,-0.07,-0.01,-0.31,5601,2019-03-25 16:50:15:318
3.22,2.97,7.93,2.25,1.67,-1.8,-0.07,-0.01,-0.31,5606,2019-03-25 16:50:15:323
3.22,2.97,7.93,2.25,1.67,-1.8,-0.07,-0.01,-0.31,5610,2019-03-25 16:50:15:327
3.22,2.97,7.93,2.25,1.67,-1.8,-0.07,-0.01,-0.31,5615,2019-03-25 16:50:15:332
2.52,2.34,12.88,1.23,0.9,3.36,-0.21,-0.11,-0.55,5620,2019-03-25 16:50:15:337
2.52,2.34,12.88,1.23,0.9,3.36,-0.21,-0.11,-0.55,5625,2019-03-25 16:50:15:342
2.27,0.77,7.77,1.23,0.9,3.36,-0.25,-0.04,-0.68,5630,2019-03-25 16:50:15:347
2.27,0.77,7.77,0.44,-0.78,-2.1,-0.25,-0.04,-0.68,5635,2019-03-25 16:50:15:352
2.27,0.77,7.77,0.44,-0.78,-2.1,-0.25,-0.04,-0.68,5640,2019-03-25 16:50:15:357
2.27,0.77,7.77,0.44,-0.78,-2.1,-0.25,-0.04,-0.68,5645,2019-03-25 16:50:15:362
2.27,0.77,7.77,0.44,-0.78,-2.1,-0.25,-0.04,-0.68,5650,2019-03-25 16:50:15:367
2.27,0.77,7.77,0.44,-0.78,-2.1,-0.25,-0.04,-0.68,5655,2019-03-25 16:50:15:372
2.39,1.08,9.98,0.41,-0.47,0.05,0.03,-0.07,-0.78,5660,2019-03-25 16:50:15:377
2.39,1.08,9.98,0.41,-0.47,0.05,0.03,-0.07,-0.78,5665,2019-03-25 16:50:15:382
2.39,1.08,9.98,0.41,-0.47,0.05,0.03,-0.07,-0.78,5670,2019-03-25 16:50:15:387
2.39,1.08,9.98,0.41,-0.47,0.05,-0.06,-0.05,-0.7,5675,2019-03-25 16:50:15:392
2.39,1.08,9.98,0.41,-0.47,0.05,-0.06,-0.05,-0.7,5680,2019-03-25 16:50:15:397
2.39,1.08,9.98,0.41,-0.47,0.05,-0.06,-0.05,-0.7,5685,2019-03-25 16:50:15:402
2.39,1.08,9.98,0.41,-0.47,0.05,-0.06,-0.05,-0.7,5690,2019-03-25 16:50:15:407
0.01,0.18,9.68,-1.92,-1.23,-0.16,-0.1,-0.03,-0.54,5695,2019-03-25 16:50:15:412
0.01,0.18,9.68,-1.92,-1.23,-0.16,-0.1,-0.03,-0.54,5700,2019-03-25 16:50:15:417
0.01,0.18,9.68,-1.92,-1.23,-0.16,-0.1,-0.03,-0.54,5705,2019-03-25 16:50:15:422
-1.94,-0.51,9.98,-3.67,-1.78,0.1,-0.04,-0.05,-0.43,5710,2019-03-25 16:50:15:427
-1.94,-0.51,9.98,-3.67,-1.78,0.1,-0.04,-0.05,-0.43,5715,2019-03-25 16:50:15:432
-1.94,-0.51,9.98,-3.67,-1.78,0.1,-0.04,-0.05,-0.43,5720,2019-03-25 16:50:15:437
-1.94,-0.51,9.98,-3.67,-1.78,0.1,-0.04,-0.05,-0.43,5725,2019-03-25 16:50:15:442
-1.94,-0.51,9.98,-3.67,-1.78,0.1,-0.04,-0.05,-0.43,5730,2019-03-25 16:50:15:447
-1.94,-0.51,9.98,-3.67,-1.78,0.1,-0.04,-0.05,-0.43,5736,2019-03-25 16:50:15:453
-1.08,-1.49,12.56,-3.67,-1.78,0.1,-0.04,-0.05,-0.43,5740,2019-03-25 16:50:15:457
-1.08,-1.49,12.56,-2.58,-2.67,2.17,-0.04,-0.03,-0.3,5745,2019-03-25 16:50:15:462
-1.08,-1.49,12.56,-2.58,-2.67,2.17,-0.04,-0.03,-0.3,5750,2019-03-25 16:50:15:467
-2.72,-2.29,8.38,-3.74,-3.05,-1.85,0.12,0.05,-0.14,5755,2019-03-25 16:50:15:472
-2.72,-2.29,8.38,-3.74,-3.05,-1.85,0.12,0.05,-0.14,5760,2019-03-25 16:50:15:477
-2.72,-2.29,8.38,-3.74,-3.05,-1.85,0.12,0.05,-0.14,5765,2019-03-25 16:50:15:482
-2.72,-2.29,8.38,-3.74,-3.05,-1.85,0.12,0.05,-0.14,5770,2019-03-25 16:50:15:487
-0.44,-0.3,9.46,-1.09,-0.67,-0.62,0.14,-0.01,0.05,5775,2019-03-25 16:50:15:492
-0.44,-0.3,9.46,-1.09,-0.67,-0.62,0.14,-0.01,0.05,5782,2019-03-25 16:50:15:499
-0.44,-0.3,9.46,-1.09,-0.67,-0.62,0.14,-0.01,0.05,5785,2019-03-25 16:50:15:502
-0.44,-0.3,9.46,-1.09,-0.67,-0.62,0.14,-0.01,0.05,5790,2019-03-25 16:50:15:507
-2.05,-1.79,9.44,-2.17,-1.79,-0.85,0.06,0.04,0.21,5795,2019-03-25 16:50:15:512
-2.05,-1.79,9.44,-2.17,-1.79,-0.85,0.06,0.04,0.21,5800,2019-03-25 16:50:15:517
-2.05,-1.79,9.44,-2.17,-1.79,-0.85,0.06,0.04,0.21,5805,2019-03-25 16:50:15:522
-2.05,-1.79,9.44,-2.17,-1.79,-0.85,0.06,0.04,0.21,5811,2019-03-25 16:50:15:528
-2.05,-1.79,9.44,-2.17,-1.79,-0.85,0.06,0.04,0.21,5816,2019-03-25 16:50:15:533
-2.05,-1.79,9.44,-2.17,-1.79,-0.85,0.06,0.04,0.21,5820,2019-03-25 16:50:15:537
-1.5,-0.36,9.49,-1.18,-0.1,-0.96,0.07,0.07,0.34,5825,2019-03-25 16:50:15:542
-1.5,-0.36,9.49,-1.18,-0.1,-0.96,0.07,0.07,0.34,5830,2019-03-25 16:50:15:547
-1.5,-0.36,9.49,-1.18,-0.1,-0.96,0.11,0.07,0.44,5835,2019-03-25 16:50:15:552
-1.5,-0.36,9.49,-1.18,-0.1,-0.96,0.11,0.07,0.44,5840,2019-03-25 16:50:15:557
-1.5,-0.36,9.49,-1.18,-0.1,-0.96,0.11,0.07,0.44,5845,2019-03-25 16:50:15:562
-1.5,-0.36,9.49,-1.18,-0.1,-0.96,0.11,0.07,0.44,5851,2019-03-25 16:50:15:568
-0.56,-0.61,8.47,0.39,0.05,-1.42,0.07,0.03,0.46,5855,2019-03-25 16:50:15:572
-0.56,-0.61,8.47,0.39,0.05,-1.42,0.07,0.03,0.46,5860,2019-03-25 16:50:15:577
-0.56,-0.61,8.47,0.39,0.05,-1.42,0.07,0.03,0.46,5865,2019-03-25 16:50:15:582
-0.56,-0.61,8.47,0.39,0.05,-1.42,0.07,0.03,0.46,5870,2019-03-25 16:50:15:587
0.06,-0.75,8.11,1.02,-0.08,-1.54,-0.05,0.01,0.45,5875,2019-03-25 16:50:15:592
0.06,-0.75,8.11,1.02,-0.08,-1.54,-0.05,0.01,0.45,5882,2019-03-25 16:50:15:599
0.06,-0.75,8.11,1.02,-0.08,-1.54,-0.05,0.01,0.45,5885,2019-03-25 16:50:15:602
3.04,2.06,17.62,3.8,2.69,7.61,0.07,0.03,0.35,5890,2019-03-25 16:50:15:607
3.04,2.06,17.62,3.8,2.69,7.61,0.07,0.03,0.35,5895,2019-03-25 16:50:15:612
3.04,2.06,17.62,3.8,2.69,7.61,0.07,0.03,0.35,5900,2019-03-25 16:50:15:617
3.04,2.06,17.62,3.8,2.69,7.61,0.07,0.03,0.35,5905,2019-03-25 16:50:15:622
0.13,-0.38,6.85,0.59,0.2,-2.8,0.18,-0.01,0.23,5910,2019-03-25 16:50:15:627
0.13,-0.38,6.85,0.59,0.2,-2.8,0.18,-0.01,0.23,5915,2019-03-25 16:50:15:632
0.13,-0.38,6.85,0.59,0.2,-2.8,0.18,-0.01,0.23,5921,2019-03-25 16:50:15:638
0.13,-0.38,6.85,0.59,0.2,-2.8,0.18,-0.01,0.23,5925,2019-03-25 16:50:15:642
0.13,-0.38,6.85,0.59,0.2,-2.8,0.18,-0.01,0.23,5930,2019-03-25 16:50:15:647
0.13,-0.38,6.85,0.59,0.2,-2.8,0.18,-0.01,0.23,5935,2019-03-25 16:50:15:652
0.97,1.31,10.31,1.34,1.65,1.19,0.08,-0.09,0.18,5940,2019-03-25 16:50:15:657
0.97,1.31,10.31,1.34,1.65,1.19,0.08,-0.09,0.18,5946,2019-03-25 16:50:15:663
0.97,1.31,10.31,1.34,1.65,1.19,0.08,-0.09,0.18,5950,2019-03-25 16:50:15:667
1.8,0.1,12.78,1.73,0.0,3.27,-0.08,-0.05,0.05,5956,2019-03-25 16:50:15:673
1.8,0.1,12.78,1.73,0.0,3.27,-0.08,-0.05,0.05,5960,2019-03-25 16:50:15:677
1.8,0.1,12.78,1.73,0.0,3.27,-0.08,-0.05,0.05,5965,2019-03-25 16:50:15:682
1.8,0.1,12.78,1.73,0.0,3.27,-0.08,-0.05,0.05,5970,2019-03-25 16:50:15:687
0.81,0.67,11.21,0.67,0.53,1.61,-0.06,-0.01,0.02,5975,2019-03-25 16:50:15:692
0.81,0.67,11.21,0.67,0.53,1.61,-0.06,-0.01,0.02,5980,2019-03-25 16:50:15:697
0.81,0.67,11.21,0.67,0.53,1.61,-0.06,-0.01,0.02,5985,2019-03-25 16:50:15:702
0.81,0.67,11.21,0.67,0.53,1.61,-0.06,-0.01,0.02,5991,2019-03-25 16:50:15:708
0.81,0.67,11.21,0.67,0.53,1.61,-0.06,-0.01,0.02,5995,2019-03-25 16:50:15:712
0.81,0.67,11.21,0.67,0.53,1.61,-0.06,-0.01,0.02,6000,2019-03-25 16:50:15:717
0.54,-0.91,8.54,0.07,-1.12,-0.88,0.04,-0.01,-0.04,6006,2019-03-25 16:50:15:723
0.54,-0.91,8.54,0.07,-1.12,-0.88,0.04,-0.01,-0.04,6010,2019-03-25 16:50:15:727
0.54,-0.91,8.54,0.07,-1.12,-0.88,0.04,-0.01,-0.04,6015,2019-03-25 16:50:15:732
0.54,-0.91,8.54,0.07,-1.12,-0.88,0.04,-0.01,-0.04,6020,2019-03-25 16:50:15:737
0.54,-0.91,8.54,0.07,-1.12,-0.88,0.04,-0.01,-0.04,6025,2019-03-25 16:50:15:742
-0.12,0.19,13.76,-0.94,0.0,4.17,0.0,0.0,0.0,6030,2019-03-25 16:50:15:747
-0.12,0.19,13.76,-0.94,0.0,4.17,0.0,0.0,0.0,6035,2019-03-25 16:50:15:752
-0.12,0.19,13.76,-0.94,0.0,4.17,0.0,0.0,0.0,6040,2019-03-25 16:50:15:757
-0.12,0.19,13.76,-0.94,0.0,4.17,0.0,0.0,0.0,6045,2019-03-25 16:50:15:762
-0.12,0.19,13.76,-0.94,0.0,4.17,0.0,0.0,0.0,6050,2019-03-25 16:50:15:767
1.14,-1.22,8.81,0.14,-1.39,-0.9,0.01,-0.02,-0.06,6055,2019-03-25 16:50:15:772
1.14,-1.22,8.81,0.14,-1.39,-0.9,0.01,-0.02,-0.06,6062,2019-03-25 16:50:15:779
1.14,-1.22,8.81,0.14,-1.39,-0.9,0.01,-0.02,-0.06,6065,2019-03-25 16:50:15:782
1.14,-1.22,8.81,0.14,-1.39,-0.9,0.01,-0.02,-0.06,6071,2019-03-25 16:50:15:788
0.06,-0.67,10.64,-0.85,-0.79,0.66,-0.13,0.0,-0.03,6075,2019-03-25 16:50:15:792
0.06,-0.67,10.64,-0.85,-0.79,0.66,-0.13,0.0,-0.03,6081,2019-03-25 16:50:15:798
0.06,-0.67,10.64,-0.85,-0.79,0.66,-0.13,0.0,-0.03,6086,2019-03-25 16:50:15:803
0.13,1.88,10.44,-0.61,1.74,0.84,-0.12,0.06,-0.08,6090,2019-03-25 16:50:15:807
0.13,1.88,10.44,-0.61,1.74,0.84,-0.12,0.06,-0.08,6096,2019-03-25 16:50:15:813
0.13,1.88,10.44,-0.61,1.74,0.84,-0.12,0.06,-0.08,6100,2019-03-25 16:50:15:817
0.13,1.88,10.44,-0.61,1.74,0.84,-0.12,0.06,-0.08,6105,2019-03-25 16:50:15:822
1.13,-0.18,9.35,0.46,-0.39,-0.6,0.03,0.03,-0.04,6110,2019-03-25 16:50:15:827
1.13,-0.18,9.35,0.46,-0.39,-0.6,0.03,0.03,-0.04,6115,2019-03-25 16:50:15:832
1.13,-0.18,9.35,0.46,-0.39,-0.6,0.03,0.03,-0.04,6120,2019-03-25 16:50:15:837
1.13,-0.18,9.35,0.46,-0.39,-0.6,0.03,0.03,-0.04,6125,2019-03-25 16:50:15:842
-1.26,1.11,10.99,-1.9,1.02,0.95,-0.04,0.02,0.07,6130,2019-03-25 16:50:15:847
-1.26,1.11,10.99,-1.9,1.02,0.95,-0.04,0.02,0.07,6135,2019-03-25 16:50:15:852
-1.26,1.11,10.99,-1.9,1.02,0.95,-0.04,0.02,0.07,6140,2019-03-25 16:50:15:857
-1.26,1.11,10.99,-1.9,1.02,0.95,-0.04,0.02,0.07,6145,2019-03-25 16:50:15:862
-1.26,1.11,10.99,-1.9,1.02,0.95,-0.04,0.02,0.07,6150,2019-03-25 16:50:15:867
-1.78,-0.88,8.71,-2.17,-0.93,-1.33,0.02,0.01,0.21,6155,2019-03-25 16:50:15:872
-1.78,-0.88,8.71,-2.17,-0.93,-1.33,0.02,0.01,0.21,6161,2019-03-25 16:50:15:878
-1.78,-0.88,8.71,-2.17,-0.93,-1.33,0.02,0.01,0.21,6165,2019-03-25 16:50:15:882
-1.78,-0.88,8.71,-2.17,-0.93,-1.33,0.02,0.01,0.21,6170,2019-03-25 16:50:15:887
1.37,1.99,16.83,1.08,1.85,6.54,0.03,0.07,0.29,6175,2019-03-25 16:50:15:892
1.37,1.99,16.83,1.08,1.85,6.54,0.03,0.07,0.29,6180,2019-03-25 16:50:15:897
1.37,1.99,16.83,1.08,1.85,6.54,0.03,0.07,0.29,6185,2019-03-25 16:50:15:902
-1.34,0.34,7.53,-1.53,0.07,-2.63,0.19,0.07,0.22,6190,2019-03-25 16:50:15:907
-1.34,0.34,7.53,-1.53,0.07,-2.63,0.19,0.07,0.22,6195,2019-03-25 16:50:15:912
-1.34,0.34,7.53,-1.53,0.07,-2.63,0.19,0.07,0.22,6200,2019-03-25 16:50:15:917
-1.34,0.34,7.53,-1.53,0.07,-2.63,0.19,0.07,0.22,6206,2019-03-25 16:50:15:923
0.53,0.81,9.04,0.5,0.39,-0.98,0.11,-0.03,0.23,6210,2019-03-25 16:50:15:927
0.53,0.81,9.04,0.5,0.39,-0.98,0.11,-0.03,0.23,6215,2019-03-25 16:50:15:932
0.53,0.81,9.04,0.5,0.39,-0.98,0.11,-0.03,0.23,6220,2019-03-25 16:50:15:937
0.53,0.81,9.04,0.5,0.39,-0.98,0.11,-0.03,0.23,6225,2019-03-25 16:50:15:942
0.53,0.81,9.04,0.5,0.39,-0.98,0.11,-0.03,0.23,6230,2019-03-25 16:50:15:947
0.53,0.81,9.04,0.5,0.39,-0.98,0.11,-0.03,0.23,6235,2019-03-25 16:50:15:952
0.15,0.83,12.44,0.1,0.16,2.46,0.05,0.01,0.19,6240,2019-03-25 16:50:15:957
0.15,0.83,12.44,0.1,0.16,2.46,0.05,0.01,0.19,6245,2019-03-25 16:50:15:962
0.15,0.83,12.44,0.1,0.16,2.46,0.05,0.01,0.19,6250,2019-03-25 16:50:15:967
0.15,0.83,12.44,0.1,0.16,2.46,0.05,0.01,0.19,6255,2019-03-25 16:50:15:972
1.33,0.94,9.67,1.25,0.09,-0.4,0.02,0.01,0.21,6260,2019-03-25 16:50:15:977
1.33,0.94,9.67,1.25,0.09,-0.4,0.02,0.01,0.21,6265,2019-03-25 16:50:15:982
1.33,0.94,9.67,1.25,0.09,-0.4,0.07,0.0,0.21,6270,2019-03-25 16:50:15:987
2.36,1.28,7.7,2.05,0.22,-2.3,0.07,0.0,0.21,6275,2019-03-25 16:50:15:992
2.36,1.28,7.7,2.05,0.22,-2.3,0.07,0.0,0.21,6280,2019-03-25 16:50:15:997
2.36,1.28,7.7,2.05,0.22,-2.3,0.07,0.0,0.21,6285,2019-03-25 16:50:16:002
1.42,1.19,11.66,1.04,0.16,1.6,0.02,-0.02,0.14,6290,2019-03-25 16:50:16:007
1.42,1.19,11.66,1.04,0.16,1.6,0.02,-0.02,0.14,6295,2019-03-25 16:50:16:012
1.42,1.19,11.66,1.04,0.16,1.6,0.02,-0.02,0.14,6300,2019-03-25 16:50:16:017
1.42,1.19,11.66,1.04,0.16,1.6,0.02,-0.02,0.14,6305,2019-03-25 16:50:16:022
3.0,2.61,13.45,2.46,1.38,2.99,-0.05,-0.02,0.03,6310,2019-03-25 16:50:16:027
3.0,2.61,13.45,2.46,1.38,2.99,-0.05,-0.02,0.03,6315,2019-03-25 16:50:16:032
3.0,2.61,13.45,2.46,1.38,2.99,-0.05,-0.02,0.03,6320,2019-03-25 16:50:16:037
3.0,2.61,13.45,2.46,1.38,2.99,-0.05,-0.02,0.03,6325,2019-03-25 16:50:16:042
3.0,2.61,13.45,2.46,1.38,2.99,-0.05,-0.02,0.03,6331,2019-03-25 16:50:16:048
3.0,2.61,13.45,2.46,1.38,2.99,-0.05,-0.02,0.03,6335,2019-03-25 16:50:16:052
2.04,0.87,7.43,1.21,-0.37,-2.77,0.07,-0.04,-0.15,6340,2019-03-25 16:50:16:057
2.04,0.87,7.43,1.21,-0.37,-2.77,0.07,-0.04,-0.15,6346,2019-03-25 16:50:16:063
2.04,0.87,7.43,1.21,-0.37,-2.77,0.07,-0.04,-0.15,6350,2019-03-25 16:50:16:067
2.04,0.87,7.43,1.21,-0.37,-2.77,0.07,-0.04,-0.15,6355,2019-03-25 16:50:16:072
2.46,0.93,8.99,1.2,-0.37,-1.26,-0.07,-0.02,-0.33,6360,2019-03-25 16:50:16:077
2.46,0.93,8.99,1.2,-0.37,-1.26,-0.07,-0.02,-0.33,6365,2019-03-25 16:50:16:082
2.46,0.93,8.99,1.2,-0.37,-1.26,-0.07,-0.02,-0.33,6370,2019-03-25 16:50:16:087
0.87,1.28,9.25,-0.51,0.02,-0.54,-0.12,-0.01,-0.53,6375,2019-03-25 16:50:16:092
0.87,1.28,9.25,-0.51,0.02,-0.54,-0.12,-0.01,-0.53,6380,2019-03-25 16:50:16:097
0.87,1.28,9.25,-0.51,0.02,-0.54,-0.12,-0.01,-0.53,6385,2019-03-25 16:50:16:102
1.92,1.76,10.61,0.42,0.46,0.53,-0.12,-0.06,-0.67,6390,2019-03-25 16:50:16:107
1.92,1.76,10.61,0.42,0.46,0.53,-0.12,-0.06,-0.67,6395,2019-03-25 16:50:16:112
1.92,1.76,10.61,0.42,0.46,0.53,-0.12,-0.06,-0.67,6400,2019-03-25 16:50:16:117
1.92,1.76,10.61,0.42,0.46,0.53,-0.12,-0.06,-0.67,6405,2019-03-25 16:50:16:122
1.92,1.76,10.61,0.42,0.46,0.53,-0.12,-0.06,-0.67,6410,2019-03-25 16:50:16:127
1.99,0.82,5.12,0.23,-0.35,-4.76,-0.11,-0.07,-0.67,6415,2019-03-25 16:50:16:132
1.99,0.82,5.12,0.23,-0.35,-4.76,-0.11,-0.07,-0.67,6420,2019-03-25 16:50:16:137
1.99,0.82,5.12,0.23,-0.35,-4.76,-0.11,-0.07,-0.67,6425,2019-03-25 16:50:16:142
-1.12,1.51,11.51,-2.73,0.38,1.58,-0.16,-0.09,-0.62,6430,2019-03-25 16:50:16:147
-1.12,1.51,11.51,-2.73,0.38,1.58,-0.16,-0.09,-0.62,6435,2019-03-25 16:50:16:152
-1.12,1.51,11.51,-2.73,0.38,1.58,-0.16,-0.09,-0.62,6440,2019-03-25 16:50:16:157
-1.12,1.51,11.51,-2.73,0.38,1.58,-0.16,-0.09,-0.62,6445,2019-03-25 16:50:16:162
1.79,-0.49,7.34,-2.73,0.38,1.58,-0.06,0.02,-0.5,6450,2019-03-25 16:50:16:167
1.79,-0.49,7.34,-2.73,0.38,1.58,-0.06,0.02,-0.5,6455,2019-03-25 16:50:16:172
1.79,-0.49,7.34,0.26,-1.61,-2.55,-0.06,0.02,-0.5,6460,2019-03-25 16:50:16:177
1.79,-0.49,7.34,0.26,-1.61,-2.55,-0.06,0.02,-0.5,6465,2019-03-25 16:50:16:182
1.79,-0.49,7.34,0.26,-1.61,-2.55,-0.06,0.02,-0.5,6470,2019-03-25 16:50:16:187
-0.84,-0.06,10.03,-2.11,-1.02,0.12,-0.12,-0.02,-0.4,6475,2019-03-25 16:50:16:192
-0.84,-0.06,10.03,-2.11,-1.02,0.12,-0.12,-0.02,-0.4,6481,2019-03-25 16:50:16:198
-0.84,-0.06,10.03,-2.11,-1.02,0.12,-0.12,-0.02,-0.4,6485,2019-03-25 16:50:16:202
-1.92,0.18,8.72,-2.82,-0.65,-1.29,-0.05,0.0,-0.25,6490,2019-03-25 16:50:16:207
-1.92,0.18,8.72,-2.82,-0.65,-1.29,-0.05,0.0,-0.25,6495,2019-03-25 16:50:16:212
-1.92,0.18,8.72,-2.82,-0.65,-1.29,-0.05,0.0,-0.25,6500,2019-03-25 16:50:16:217
-1.92,0.18,8.72,-2.82,-0.65,-1.29,-0.05,0.0,-0.25,6505,2019-03-25 16:50:16:222
-1.73,-1.05,10.15,-2.36,-1.53,0.52,0.0,-0.01,-0.11,6509,2019-03-25 16:50:16:226
-1.73,-1.05,10.15,-2.36,-1.53,0.52,0.0,-0.01,-0.11,6515,2019-03-25 16:50:16:232
-1.73,-1.05,10.15,-2.36,-1.53,0.52,0.0,-0.01,-0.11,6520,2019-03-25 16:50:16:237
-1.73,-1.05,10.15,-2.36,-1.53,0.52,0.0,-0.01,-0.11,6525,2019-03-25 16:50:16:242
-1.73,-1.05,10.15,-2.36,-1.53,0.52,0.0,-0.01,-0.11,6530,2019-03-25 16:50:16:247
-1.73,-1.05,10.15,-2.36,-1.53,0.52,0.0,-0.01,-0.11,6535,2019-03-25 16:50:16:252
-1.1,-2.51,8.92,-2.36,-1.53,0.52,0.0,-0.01,-0.11,6539,2019-03-25 16:50:16:256
-1.1,-2.51,8.92,-1.34,-2.69,-0.92,0.01,0.0,0.06,6545,2019-03-25 16:50:16:262
-1.1,-2.51,8.92,-1.34,-2.69,-0.92,0.01,0.0,0.06,6550,2019-03-25 16:50:16:267
-1.1,-2.51,8.92,-1.34,-2.69,-0.92,0.01,0.0,0.06,6556,2019-03-25 16:50:16:273
-1.45,-1.88,10.28,-1.27,-1.81,0.31,-0.03,-0.01,0.22,6560,2019-03-25 16:50:16:277
-1.45,-1.88,10.28,-1.27,-1.81,0.31,-0.03,-0.01,0.22,6565,2019-03-25 16:50:16:282
-1.45,-1.88,10.28,-1.27,-1.81,0.31,-0.03,-0.01,0.22,6571,2019-03-25 16:50:16:288
-2.82,0.11,9.77,-2.26,0.33,-0.2,0.05,0.08,0.34,6575,2019-03-25 16:50:16:292
-2.82,0.11,9.77,-2.26,0.33,-0.2,0.05,0.08,0.34,6579,2019-03-25 16:50:16:296
-2.82,0.11,9.77,-2.26,0.33,-0.2,0.05,0.08,0.34,6586,2019-03-25 16:50:16:303
0.81,-0.19,9.93,1.53,0.15,0.18,0.11,0.04,0.38,6590,2019-03-25 16:50:16:307
0.81,-0.19,9.93,1.53,0.15,0.18,0.11,0.04,0.38,6595,2019-03-25 16:50:16:312
0.81,-0.19,9.93,1.53,0.15,0.18,0.11,0.04,0.38,6600,2019-03-25 16:50:16:317
0.81,-0.19,9.93,1.53,0.15,0.18,0.11,0.04,0.38,6605,2019-03-25 16:50:16:322
0.81,-0.19,9.93,1.53,0.15,0.18,0.11,0.04,0.38,6611,2019-03-25 16:50:16:328
0.81,-0.19,9.93,1.53,0.15,0.18,0.11,0.04,0.38,6615,2019-03-25 16:50:16:332
1.23,0.73,12.39,2.1,1.11,2.24,-0.01,0.03,0.38,6620,2019-03-25 16:50:16:337
1.23,0.73,12.39,2.1,1.11,2.24,-0.01,0.03,0.38,6625,2019-03-25 16:50:16:342
1.23,0.73,12.39,2.1,1.11,2.24,-0.01,0.03,0.38,6630,2019-03-25 16:50:16:347
1.23,0.73,12.39,2.1,1.11,2.24,-0.01,0.03,0.38,6636,2019-03-25 16:50:16:353
1.27,0.37,8.49,1.9,0.79,-1.52,0.1,0.02,0.25,6640,2019-03-25 16:50:16:357
1.27,0.37,8.49,1.9,0.79,-1.52,0.1,0.02,0.25,6645,2019-03-25 16:50:16:362
1.27,0.37,8.49,1.9,0.79,-1.52,0.1,0.02,0.25,6650,2019-03-25 16:50:16:367
1.27,0.37,8.49,1.9,0.79,-1.52,0.1,0.02,0.25,6655,2019-03-25 16:50:16:372
2.27,-0.54,7.28,2.83,-0.02,-2.44,0.02,-0.03,0.16,6660,2019-03-25 16:50:16:377
2.27,-0.54,7.28,2.83,-0.02,-2.44,0.02,-0.03,0.16,6665,2019-03-25 16:50:16:382
2.27,-0.54,7.28,2.83,-0.02,-2.44,0.02,-0.03,0.16,6670,2019-03-25 16:50:16:387
2.27,-0.54,7.28,2.83,-0.02,-2.44,0.02,-0.03,0.16,6675,2019-03-25 16:50:16:392
2.67,0.07,7.84,2.89,0.6,-1.95,-0.03,-0.02,0.09,6679,2019-03-25 16:50:16:396
2.67,0.07,7.84,2.89,0.6,-1.95,-0.03,-0.02,0.09,6685,2019-03-25 16:50:16:402
2.67,0.07,7.84,2.89,0.6,-1.95,0.05,0.02,0.0,6690,2019-03-25 16:50:16:407
0.81,1.29,13.5,0.77,1.84,3.59,0.05,0.02,0.0,6695,2019-03-25 16:50:16:412
0.81,1.29,13.5,0.77,1.84,3.59,0.05,0.02,0.0,6700,2019-03-25 16:50:16:417
0.81,1.29,13.5,0.77,1.84,3.59,0.05,0.02,0.0,6705,2019-03-25 16:50:16:422
0.81,1.29,13.5,0.77,1.84,3.59,0.05,0.02,0.0,6710,2019-03-25 16:50:16:427
2.68,0.05,5.84,2.42,0.54,-3.85,0.1,0.08,-0.05,6715,2019-03-25 16:50:16:432
2.68,0.05,5.84,2.42,0.54,-3.85,0.1,0.08,-0.05,6720,2019-03-25 16:50:16:437
2.68,0.05,5.84,2.42,0.54,-3.85,0.1,0.08,-0.05,6725,2019-03-25 16:50:16:442
1.66,0.73,9.18,1.23,0.97,-0.4,0.0,-0.02,-0.07,6729,2019-03-25 16:50:16:446
1.66,0.73,9.18,1.23,0.97,-0.4,0.0,-0.02,-0.07,6735,2019-03-25 16:50:16:452
1.66,0.73,9.18,1.23,0.97,-0.4,0.0,-0.02,-0.07,6740,2019-03-25 16:50:16:457
1.66,0.73,9.18,1.23,0.97,-0.4,0.0,-0.02,-0.07,6745,2019-03-25 16:50:16:462
1.66,0.73,9.18,1.23,0.97,-0.4,0.0,-0.02,-0.07,6749,2019-03-25 16:50:16:466
1.66,0.73,9.18,1.23,0.97,-0.4,0.0,-0.02,-0.07,6754,2019-03-25 16:50:16:471
-0.15,0.25,8.17,-0.77,0.31,-1.37,0.07,-0.05,-0.16,6761,2019-03-25 16:50:16:478
-0.15,0.25,8.17,-0.77,0.31,-1.37,0.07,-0.05,-0.16,6765,2019-03-25 16:50:16:482
-0.15,0.25,8.17,-0.77,0.31,-1.37,0.07,-0.05,-0.16,6770,2019-03-25 16:50:16:487
-0.15,0.25,8.17,-0.77,0.31,-1.37,0.07,-0.05,-0.16,6775,2019-03-25 16:50:16:492
0.6,-1.16,8.46,-0.27,-1.08,-0.99,0.0,-0.01,-0.18,6779,2019-03-25 16:50:16:496
0.6,-1.16,8.46,-0.27,-1.08,-0.99,0.0,-0.01,-0.18,6785,2019-03-25 16:50:16:502
-0.62,-0.16,10.99,-1.4,-0.07,1.26,0.0,-0.01,-0.08,6791,2019-03-25 16:50:16:508
-0.62,-0.16,10.99,-1.4,-0.07,1.26,0.0,-0.01,-0.08,6795,2019-03-25 16:50:16:512
-0.62,-0.16,10.99,-1.4,-0.07,1.26,0.0,-0.01,-0.08,6799,2019-03-25 16:50:16:516
-0.62,-0.16,10.99,-1.4,-0.07,1.26,0.0,-0.01,-0.08,6805,2019-03-25 16:50:16:522
-0.62,-0.16,10.99,-1.4,-0.07,1.26,0.0,-0.01,-0.08,6811,2019-03-25 16:50:16:528
-0.62,-0.16,10.99,-1.4,-0.07,1.26,0.0,-0.01,-0.08,6815,2019-03-25 16:50:16:532
-1.51,0.79,10.54,-2.14,0.89,0.82,0.01,-0.01,0.06,6820,2019-03-25 16:50:16:537
-1.51,0.79,10.54,-2.14,0.89,0.82,0.01,-0.01,0.06,6825,2019-03-25 16:50:16:542
-1.51,0.79,10.54,-2.14,0.89,0.82,0.01,-0.01,0.06,6830,2019-03-25 16:50:16:547
-1.51,0.79,10.54,-2.14,0.89,0.82,0.0,0.01,0.23,6835,2019-03-25 16:50:16:552
-1.51,0.79,10.54,-2.14,0.89,0.82,0.0,0.01,0.23,6841,2019-03-25 16:50:16:558
-1.51,0.79,10.54,-2.14,0.89,0.82,0.0,0.01,0.23,6845,2019-03-25 16:50:16:562
-1.51,0.79,10.54,-2.14,0.89,0.82,0.0,0.01,0.23,6850,2019-03-25 16:50:16:567
-1.51,0.79,10.54,-2.14,0.89,0.82,0.0,0.01,0.23,6855,2019-03-25 16:50:16:572
-2.11,2.41,14.58,-2.24,2.25,4.55,0.05,0.03,0.23,6860,2019-03-25 16:50:16:577
-2.11,2.41,14.58,-2.24,2.25,4.55,0.05,0.03,0.23,6867,2019-03-25 16:50:16:584
-1.62,0.99,7.51,-2.24,2.25,4.55,0.11,0.04,0.28,6870,2019-03-25 16:50:16:587
-1.62,0.99,7.51,-2.24,2.25,4.55,0.11,0.04,0.28,6875,2019-03-25 16:50:16:592
-1.62,0.99,7.51,-2.24,2.25,4.55,0.11,0.04,0.28,6880,2019-03-25 16:50:16:597
-1.62,0.99,7.51,-2.24,2.25,4.55,0.11,0.04,0.28,6885,2019-03-25 16:50:16:602
-1.62,0.99,7.51,-2.24,2.25,4.55,0.11,0.04,0.28,6890,2019-03-25 16:50:16:607
-1.62,0.99,7.51,-2.24,2.25,4.55,0.11,0.04,0.28,6895,2019-03-25 16:50:16:612
-1.62,0.99,7.51,-2.24,2.25,4.55,0.11,0.04,0.28,6901,2019-03-25 16:50:16:618
-0.21,1.03,11.22,-0.13,0.37,1.44,0.07,-0.03,0.29,6905,2019-03-25 16:50:16:622
-0.21,1.03,11.22,-0.13,0.37,1.44,0.07,-0.03,0.29,6910,2019-03-25 16:50:16:627
-0.21,1.03,11.22,-0.13,0.37,1.44,0.07,-0.03,0.29,6915,2019-03-25 16:50:16:632
-0.21,1.03,11.22,-0.13,0.37,1.44,0.07,-0.03,0.29,6920,2019-03-25 16:50:16:637
1.96,0.53,8.36,2.07,-0.07,-1.34,0.03,0.06,0.31,6925,2019-03-25 16:50:16:642
1.96,0.53,8.36,2.07,-0.07,-1.34,0.03,0.06,0.31,6930,2019-03-25 16:50:16:647
1.96,0.53,8.36,2.07,-0.07,-1.34,0.03,0.06,0.31,6935,2019-03-25 16:50:16:652
1.96,0.53,8.36,2.07,-0.07,-1.34,0.03,0.06,0.31,6940,2019-03-25 16:50:16:657
1.96,0.53,8.36,2.07,-0.07,-1.34,0.03,0.06,0.31,6945,2019-03-25 16:50:16:662
1.96,0.53,8.36,2.07,-0.07,-1.34,0.03,0.06,0.31,6950,2019-03-25 16:50:16:667
1.4,-0.05,9.82,1.58,-0.68,-0.11,0.05,0.0,0.26,6955,2019-03-25 16:50:16:672
1.4,-0.05,9.82,1.58,-0.68,-0.11,0.05,0.0,0.26,6960,2019-03-25 16:50:16:677
1.4,-0.05,9.82,1.58,-0.68,-0.11,0.05,0.0,0.26,6967,2019-03-25 16:50:16:684
1.4,-0.05,9.82,1.58,-0.68,-0.11,0.05,0.0,0.26,6970,2019-03-25 16:50:16:687
0.49,-0.13,12.26,0.69,-0.83,2.24,-0.02,-0.01,0.23,6977,2019-03-25 16:50:16:694
0.49,-0.13,12.26,0.69,-0.83,2.24,-0.02,-0.01,0.23,6983,2019-03-25 16:50:16:700
0.49,-0.13,12.26,0.69,-0.83,2.24,-0.02,-0.01,0.23,6987,2019-03-25 16:50:16:704
1.55,-0.45,10.97,1.55,-1.15,0.97,-0.11,0.05,0.16,6990,2019-03-25 16:50:16:707
1.55,-0.45,10.97,1.55,-1.15,0.97,-0.11,0.05,0.16,6995,2019-03-25 16:50:16:712
1.55,-0.45,10.97,1.55,-1.15,0.97,-0.11,0.05,0.16,7000,2019-03-25 16:50:16:717
1.55,-0.45,10.97,1.55,-1.15,0.97,-0.11,0.05,0.16,7004,2019-03-25 16:50:16:721
1.55,-0.45,10.97,1.55,-1.15,0.97,-0.11,0.05,0.16,7010,2019-03-25 16:50:16:727
1.55,-0.45,10.97,1.55,-1.15,0.97,-0.11,0.05,0.16,7015,2019-03-25 16:50:16:732
2.37,1.46,13.11,1.92,0.75,3.17,-0.05,0.0,0.03,7020,2019-03-25 16:50:16:737
2.37,1.46,13.11,1.92,0.75,3.17,-0.05,0.0,0.03,7025,2019-03-25 16:50:16:742
2.37,1.46,13.11,1.92,0.75,3.17,-0.05,0.0,0.03,7031,2019-03-25 16:50:16:748
2.37,1.46,13.11,1.92,0.75,3.17,-0.05,0.0,0.03,7035,2019-03-25 16:50:16:752
2.37,1.46,13.11,1.92,0.75,3.17,-0.05,0.0,0.03,7040,2019-03-25 16:50:16:757
1.97,0.32,8.65,1.22,-0.41,-1.42,0.0,-0.02,-0.17,7045,2019-03-25 16:50:16:762
1.97,0.32,8.65,1.22,-0.41,-1.42,0.0,-0.02,-0.17,7050,2019-03-25 16:50:16:767
2.12,0.82,10.7,1.14,0.26,0.87,-0.05,-0.02,-0.38,7055,2019-03-25 16:50:16:772
2.12,0.82,10.7,1.14,0.26,0.87,-0.05,-0.02,-0.38,7060,2019-03-25 16:50:16:777
2.12,0.82,10.7,1.14,0.26,0.87,-0.05,-0.02,-0.38,7065,2019-03-25 16:50:16:782
2.94,0.96,8.28,1.76,0.47,-1.7,-0.08,-0.05,-0.44,7070,2019-03-25 16:50:16:787
2.94,0.96,8.28,1.76,0.47,-1.7,-0.08,-0.05,-0.44,7075,2019-03-25 16:50:16:792
2.94,0.96,8.28,1.76,0.47,-1.7,-0.08,-0.05,-0.44,7080,2019-03-25 16:50:16:797
2.94,0.96,8.28,1.76,0.47,-1.7,-0.08,-0.05,-0.44,7086,2019-03-25 16:50:16:803
2.94,0.96,8.28,1.76,0.47,-1.7,-0.08,-0.05,-0.44,7090,2019-03-25 16:50:16:807
-0.09,1.7,14.27,-1.39,1.22,4.37,-0.15,-0.1,-0.44,7095,2019-03-25 16:50:16:812
-0.09,1.7,14.27,-1.39,1.22,4.37,-0.15,-0.1,-0.44,7100,2019-03-25 16:50:16:817
-0.09,1.7,14.27,-1.39,1.22,4.37,-0.15,-0.1,-0.44,7105,2019-03-25 16:50:16:822
-0.09,1.7,14.27,-1.39,1.22,4.37,-0.15,-0.1,-0.44,7110,2019-03-25 16:50:16:827
-0.09,1.7,14.27,-1.39,1.22,4.37,-0.15,-0.1,-0.44,7117,2019-03-25 16:50:16:834
-0.09,1.7,14.27,-1.39,1.22,4.37,-0.15,-0.1,-0.44,7120,2019-03-25 16:50:16:837
1.08,2.05,16.79,-0.16,1.36,6.2,-0.13,-0.03,-0.4,7126,2019-03-25 16:50:16:843
1.08,2.05,16.79,-0.16,1.36,6.2,-0.13,-0.03,-0.4,7130,2019-03-25 16:50:16:847
1.08,2.05,16.79,-0.16,1.36,6.2,-0.13,-0.03,-0.4,7135,2019-03-25 16:50:16:852
1.08,2.05,16.79,-0.16,1.36,6.2,-0.13,-0.03,-0.4,7139,2019-03-25 16:50:16:856
0.13,2.13,6.6,-1.02,1.23,-3.65,0.0,0.05,-0.36,7145,2019-03-25 16:50:16:862
0.13,2.13,6.6,-1.02,1.23,-3.65,0.0,0.05,-0.36,7152,2019-03-25 16:50:16:869
0.13,2.13,6.6,-1.02,1.23,-3.65,0.0,0.05,-0.36,7155,2019-03-25 16:50:16:872
0.25,1.9,13.85,-1.0,0.82,3.52,-0.03,-0.03,-0.3,7160,2019-03-25 16:50:16:877
0.25,1.9,13.85,-1.0,0.82,3.52,-0.03,-0.03,-0.3,7167,2019-03-25 16:50:16:884
0.25,1.9,13.85,-1.0,0.82,3.52,-0.03,-0.03,-0.3,7170,2019-03-25 16:50:16:887
0.25,1.9,13.85,-1.0,0.82,3.52,-0.03,-0.03,-0.3,7174,2019-03-25 16:50:16:891
-0.32,0.57,9.07,-1.55,-0.6,-1.24,0.0,0.0,-0.26,7180,2019-03-25 16:50:16:897
-0.32,0.57,9.07,-1.55,-0.6,-1.24,0.0,0.0,-0.26,7185,2019-03-25 16:50:16:902
-0.32,0.57,9.07,-0.44,-2.05,-0.75,0.0,-0.02,-0.19,7190,2019-03-25 16:50:16:907
0.07,-0.83,11.65,-0.44,-2.05,-0.75,0.0,-0.02,-0.19,7195,2019-03-25 16:50:16:912
0.07,-0.83,11.65,-0.44,-2.05,-0.75,0.0,-0.02,-0.19,7201,2019-03-25 16:50:16:918
0.07,-0.83,11.65,-0.44,-2.05,-0.75,0.0,-0.02,-0.19,7206,2019-03-25 16:50:16:923
0.07,-0.83,11.65,-0.44,-2.05,-0.75,0.0,-0.02,-0.19,7210,2019-03-25 16:50:16:927
-0.15,-0.83,9.68,-0.89,-1.87,-0.55,0.02,-0.01,-0.1,7215,2019-03-25 16:50:16:932
-0.15,-0.83,9.68,-0.89,-1.87,-0.55,0.02,-0.01,-0.1,7220,2019-03-25 16:50:16:937
-0.15,-0.83,9.68,-0.89,-1.87,-0.55,0.02,-0.01,-0.1,7225,2019-03-25 16:50:16:942
-0.3,-1.34,7.32,-0.88,-2.15,-2.82,0.02,0.0,-0.05,7230,2019-03-25 16:50:16:947
-0.3,-1.34,7.32,-0.88,-2.15,-2.82,0.02,0.0,-0.05,7235,2019-03-25 16:50:16:952
-0.3,-1.34,7.32,-0.88,-2.15,-2.82,0.02,0.0,-0.05,7240,2019-03-25 16:50:16:957
-0.3,-1.34,7.32,-0.88,-2.15,-2.82,0.02,0.0,-0.05,7245,2019-03-25 16:50:16:962
0.31,-1.07,12.03,-0.11,-1.66,1.73,-0.02,0.0,0.0,7250,2019-03-25 16:50:16:967
0.31,-1.07,12.03,-0.11,-1.66,1.73,-0.02,0.0,0.0,7255,2019-03-25 16:50:16:972
0.31,-1.07,12.03,-0.11,-1.66,1.73,-0.02,0.0,0.0,7261,2019-03-25 16:50:16:978
0.31,-1.07,12.03,-0.11,-1.66,1.73,-0.02,0.0,0.0,7265,2019-03-25 16:50:16:982
0.31,-1.07,12.03,-0.11,-1.66,1.73,-0.02,0.0,0.0,7270,2019-03-25 16:50:16:987
-0.62,-0.98,5.2,-0.78,-1.4,-5.02,0.04,0.04,0.03,7275,2019-03-25 16:50:16:992
-0.62,-0.98,5.2,-0.78,-1.4,-5.02,0.04,0.04,0.03,7280,2019-03-25 16:50:16:997
-0.62,-0.98,5.2,-0.78,-1.4,-5.02,0.04,0.04,0.03,7285,2019-03-25 16:50:17:002
-0.15,0.07,10.97,-0.33,-0.22,0.74,0.04,-0.04,0.03,7291,2019-03-25 16:50:17:008
-0.15,0.07,10.97,-0.33,-0.22,0.74,0.04,-0.04,0.03,7295,2019-03-25 16:50:17:012
-0.15,0.07,10.97,-0.33,-0.22,0.74,0.04,-0.04,0.03,7300,2019-03-25 16:50:17:017
-0.15,0.07,10.97,-0.33,-0.22,0.74,0.04,-0.04,0.03,7305,2019-03-25 16:50:17:022
-1.29,0.1,9.16,-1.4,0.02,-0.53,0.03,-0.01,-0.01,7310,2019-03-25 16:50:17:027
-1.29,0.1,9.16,-1.4,0.02,-0.53,0.03,-0.01,-0.01,7315,2019-03-25 16:50:17:032
-1.29,0.1,9.16,-1.4,0.02,-0.53,0.03,-0.01,-0.01,7320,2019-03-25 16:50:17:037
-1.29,0.1,9.16,-1.4,0.02,-0.53,0.03,-0.01,-0.01,7325,2019-03-25 16:50:17:042
2.03,-0.46,8.48,1.78,-0.25,-1.36,0.01,0.01,0.0,7332,2019-03-25 16:50:17:049
2.03,-0.46,8.48,1.78,-0.25,-1.36,0.01,0.01,0.0,7336,2019-03-25 16:50:17:053
2.03,-0.46,8.48,1.78,-0.25,-1.36,0.01,0.01,0.0,7340,2019-03-25 16:50:17:057
2.03,-0.46,8.48,1.78,-0.25,-1.36,0.01,0.01,0.0,7345,2019-03-25 16:50:17:062
2.03,-0.46,8.48,1.78,-0.25,-1.36,0.01,0.01,0.0,7355,2019-03-25 16:50:17:072
2.03,-0.46,8.48,1.78,-0.25,-1.36,0.01,0.01,0.0,7356,2019-03-25 16:50:17:073
1.2,-0.66,10.43,0.95,-0.2,0.56,-0.02,-0.02,0.01,7360,2019-03-25 16:50:17:077
1.2,-0.66,10.43,0.95,-0.2,0.56,-0.02,-0.02,0.01,7365,2019-03-25 16:50:17:082
1.2,-0.66,10.43,0.95,-0.2,0.56,-0.02,-0.02,0.01,7370,2019-03-25 16:50:17:087
1.2,-0.66,10.43,0.95,-0.2,0.56,-0.02,-0.02,0.01,7375,2019-03-25 16:50:17:092
0.44,0.44,7.05,0.11,0.98,-2.71,-0.02,-0.03,-0.01,7381,2019-03-25 16:50:17:098
0.44,0.44,7.05,0.11,0.98,-2.71,-0.02,-0.03,-0.01,7385,2019-03-25 16:50:17:102
0.44,0.44,7.05,0.11,0.98,-2.71,-0.02,-0.03,-0.01,7391,2019-03-25 16:50:17:108
1.22,1.25,8.01,0.8,1.75,-1.75,-0.05,-0.05,-0.03,7396,2019-03-25 16:50:17:113
1.22,1.25,8.01,0.8,1.75,-1.75,-0.05,-0.05,-0.03,7400,2019-03-25 16:50:17:117
1.22,1.25,8.01,0.8,1.75,-1.75,-0.05,-0.05,-0.03,7405,2019-03-25 16:50:17:122
1.12,2.0,8.57,0.61,2.2,-1.68,0.05,-0.01,-0.07,7410,2019-03-25 16:50:17:127
1.12,2.0,8.57,0.61,2.2,-1.68,0.05,-0.01,-0.07,7416,2019-03-25 16:50:17:133
1.12,2.0,8.57,0.61,2.2,-1.68,0.05,-0.01,-0.07,7420,2019-03-25 16:50:17:137
1.12,2.0,8.57,0.61,2.2,-1.68,0.05,-0.01,-0.07,7425,2019-03-25 16:50:17:142
0.08,0.24,8.45,-0.49,0.37,-1.94,0.07,0.0,-0.11,7430,2019-03-25 16:50:17:147
0.08,0.24,8.45,-0.49,0.37,-1.94,0.07,0.0,-0.11,7435,2019-03-25 16:50:17:152
0.08,0.24,8.45,-0.49,0.37,-1.94,0.07,0.0,-0.11,7440,2019-03-25 16:50:17:157
0.08,0.24,8.45,-0.49,0.37,-1.94,0.07,0.0,-0.11,7445,2019-03-25 16:50:17:162
0.6,0.02,8.56,0.01,0.03,-1.67,0.06,0.04,-0.04,7450,2019-03-25 16:50:17:167
0.6,0.02,8.56,0.01,0.03,-1.67,0.06,0.04,-0.04,7455,2019-03-25 16:50:17:172
0.6,0.02,8.56,0.01,0.03,-1.67,0.06,0.04,-0.04,7460,2019-03-25 16:50:17:177
0.6,0.02,8.56,0.01,0.03,-1.67,0.06,0.04,-0.04,7465,2019-03-25 16:50:17:182
0.6,0.02,8.56,0.01,0.03,-1.67,0.06,0.04,-0.04,7470,2019-03-25 16:50:17:187
-2.2,1.52,10.58,-2.53,1.33,0.11,0.01,0.01,0.08,7475,2019-03-25 16:50:17:192
-2.2,1.52,10.58,-2.53,1.33,0.11,0.01,0.01,0.08,7482,2019-03-25 16:50:17:199
-2.2,1.52,10.58,-2.53,1.33,0.11,0.01,0.01,0.08,7485,2019-03-25 16:50:17:202
-2.2,1.52,10.58,-2.53,1.33,0.11,0.01,0.01,0.08,7491,2019-03-25 16:50:17:208
-0.7,0.56,9.23,-0.87,0.31,-1.07,0.09,0.02,0.24,7495,2019-03-25 16:50:17:212
-0.7,0.56,9.23,-0.87,0.31,-1.07,0.09,0.02,0.24,7500,2019-03-25 16:50:17:217
-0.7,0.56,9.23,-0.87,0.31,-1.07,0.09,0.02,0.24,7506,2019-03-25 16:50:17:223
-0.7,0.56,9.23,-0.87,0.31,-1.07,0.09,0.02,0.24,7509,2019-03-25 16:50:17:226
-0.7,0.56,9.23,-0.87,0.31,-1.07,0.09,0.02,0.24,7515,2019-03-25 16:50:17:232
-1.63,0.48,7.74,-1.67,0.2,-2.4,0.06,0.02,0.3,7520,2019-03-25 16:50:17:237
-1.63,0.48,7.74,-1.67,0.2,-2.4,0.06,0.02,0.3,7525,2019-03-25 16:50:17:242
-1.63,0.48,7.74,-1.32,-0.82,2.77,0.03,-0.03,0.38,7533,2019-03-25 16:50:17:250
-1.63,0.48,7.74,-1.32,-0.82,2.77,0.03,-0.03,0.38,7535,2019-03-25 16:50:17:252
-1.63,0.48,7.74,-1.32,-0.82,2.77,0.03,-0.03,0.38,7540,2019-03-25 16:50:17:257
-1.63,0.48,7.74,-1.32,-0.82,2.77,0.03,-0.03,0.38,7545,2019-03-25 16:50:17:262
-1.63,0.48,7.74,-1.32,-0.82,2.77,0.03,-0.03,0.38,7550,2019-03-25 16:50:17:267
1.67,0.84,9.19,1.88,0.39,-1.22,0.01,0.04,0.44,7555,2019-03-25 16:50:17:272
1.67,0.84,9.19,1.88,0.39,-1.22,0.01,0.04,0.44,7561,2019-03-25 16:50:17:278
1.67,0.84,9.19,1.88,0.39,-1.22,0.01,0.04,0.44,7566,2019-03-25 16:50:17:283
0.86,1.47,11.72,1.11,0.95,1.13,0.07,0.0,0.41,7570,2019-03-25 16:50:17:287
0.86,1.47,11.72,1.11,0.95,1.13,0.07,0.0,0.41,7576,2019-03-25 16:50:17:293
0.86,1.47,11.72,1.11,0.95,1.13,0.07,0.0,0.41,7580,2019-03-25 16:50:17:297
0.86,1.47,11.72,1.11,0.95,1.13,0.07,0.0,0.41,7588,2019-03-25 16:50:17:305
0.86,1.47,11.72,1.11,0.95,1.13,0.07,0.0,0.41,7590,2019-03-25 16:50:17:307
0.86,1.47,11.72,1.11,0.95,1.13,0.07,0.0,0.41,7595,2019-03-25 16:50:17:312
0.86,1.47,11.72,1.11,0.95,1.13,0.07,0.0,0.41,7600,2019-03-25 16:50:17:317
3.09,0.88,8.68,0.7,0.56,-2.15,0.12,0.0,0.34,7605,2019-03-25 16:50:17:322
3.09,0.88,8.68,0.7,0.56,-2.15,0.12,0.0,0.34,7611,2019-03-25 16:50:17:328
3.09,0.88,8.68,0.7,0.56,-2.15,0.12,0.0,0.34,7615,2019-03-25 16:50:17:332
3.09,0.88,8.68,0.7,0.56,-2.15,0.12,0.0,0.34,7620,2019-03-25 16:50:17:337
3.09,0.88,8.68,0.7,0.56,-2.15,0.12,0.0,0.34,7625,2019-03-25 16:50:17:342
2.13,-0.21,9.01,2.1,-0.86,-0.82,0.06,-0.01,0.18,7632,2019-03-25 16:50:17:349
2.13,-0.21,9.01,2.1,-0.86,-0.82,0.06,-0.01,0.18,7635,2019-03-25 16:50:17:352
1.58,-0.12,5.92,1.34,-0.8,-3.65,0.0,-0.01,0.04,7645,2019-03-25 16:50:17:362
1.58,-0.12,5.92,1.34,-0.8,-3.65,0.0,-0.01,0.04,7646,2019-03-25 16:50:17:363
1.58,-0.12,5.92,1.34,-0.8,-3.65,0.0,-0.01,0.04,7650,2019-03-25 16:50:17:367
1.58,-0.12,5.92,1.34,-0.8,-3.65,0.0,-0.01,0.04,7657,2019-03-25 16:50:17:374
0.8,0.48,10.95,0.22,0.02,1.31,-0.06,-0.03,-0.11,7660,2019-03-25 16:50:17:377
0.8,0.48,10.95,0.22,0.02,1.31,-0.06,-0.03,-0.11,7665,2019-03-25 16:50:17:382
0.8,0.48,10.95,0.22,0.02,1.31,-0.06,-0.03,-0.11,7670,2019-03-25 16:50:17:387
0.8,0.48,10.95,0.22,0.02,1.31,-0.06,-0.03,-0.11,7675,2019-03-25 16:50:17:392
2.09,0.32,7.34,1.21,-0.14,-2.33,-0.02,0.05,-0.23,7680,2019-03-25 16:50:17:397
2.09,0.32,7.34,1.21,-0.14,-2.33,-0.02,0.05,-0.23,7685,2019-03-25 16:50:17:402
2.09,0.32,7.34,1.21,-0.14,-2.33,-0.02,0.05,-0.23,7690,2019-03-25 16:50:17:407
2.09,0.32,7.34,1.21,-0.14,-2.33,-0.02,0.05,-0.23,7696,2019-03-25 16:50:17:413
2.09,0.32,7.34,1.21,-0.14,-2.33,-0.02,0.05,-0.23,7700,2019-03-25 16:50:17:417
2.09,1.6,9.55,0.7,1.01,-0.2,-0.03,-0.04,-0.32,7704,2019-03-25 16:50:17:421
1.93,1.6,9.55,0.7,1.01,-0.2,-0.03,-0.04,-0.32,7712,2019-03-25 16:50:17:429
1.93,1.6,9.55,0.7,1.01,-0.2,-0.03,-0.04,-0.32,7716,2019-03-25 16:50:17:433
1.93,1.6,9.55,0.7,1.01,-0.2,-0.03,-0.04,-0.32,7720,2019-03-25 16:50:17:437
1.0,1.56,10.67,-0.42,0.88,0.99,-0.07,-0.05,-0.38,7725,2019-03-25 16:50:17:442
1.0,1.56,10.67,-0.42,0.88,0.99,-0.07,-0.05,-0.38,7730,2019-03-25 16:50:17:447
1.0,1.56,10.67,-0.42,0.88,0.99,-0.07,-0.05,-0.38,7735,2019-03-25 16:50:17:452
1.25,2.39,10.53,-0.31,1.52,0.96,-0.08,0.0,-0.4,7740,2019-03-25 16:50:17:457
1.25,2.39,10.53,-0.31,1.52,0.96,-0.08,0.0,-0.4,7745,2019-03-25 16:50:17:462
1.25,2.39,10.53,-0.31,1.52,0.96,-0.08,0.0,-0.4,7751,2019-03-25 16:50:17:468
1.25,2.39,10.53,-0.31,1.52,0.96,-0.08,0.0,-0.4,7755,2019-03-25 16:50:17:472
1.25,2.39,10.53,-0.31,1.52,0.96,-0.08,0.0,-0.4,7760,2019-03-25 16:50:17:477
1.25,2.39,10.53,-0.31,1.52,0.96,-0.08,0.0,-0.4,7765,2019-03-25 16:50:17:482
1.25,2.39,10.53,-0.31,1.52,0.96,-0.08,0.0,-0.4,7770,2019-03-25 16:50:17:487
0.82,2.21,8.78,-0.78,1.19,-0.65,-0.02,-0.02,-0.36,7775,2019-03-25 16:50:17:492
0.82,2.21,8.78,-0.78,1.19,-0.65,-0.02,-0.02,-0.36,7780,2019-03-25 16:50:17:497
0.82,2.21,8.78,-0.78,1.19,-0.65,-0.02,-0.02,-0.36,7786,2019-03-25 16:50:17:503
0.82,2.21,8.78,-0.78,1.19,-0.65,-0.02,-0.02,-0.36,7790,2019-03-25 16:50:17:507
0.36,1.25,12.55,-1.31,0.15,3.11,0.0,-0.06,-0.33,7795,2019-03-25 16:50:17:512
0.36,1.25,12.55,-1.31,0.15,3.11,0.0,-0.06,-0.33,7800,2019-03-25 16:50:17:517
0.36,1.25,12.55,-1.31,0.15,3.11,0.0,-0.06,-0.33,7806,2019-03-25 16:50:17:523
0.36,1.25,12.55,-1.31,0.15,3.11,0.0,-0.06,-0.33,7810,2019-03-25 16:50:17:527
0.36,1.25,12.55,-1.31,0.15,3.11,0.0,-0.06,-0.33,7815,2019-03-25 16:50:17:532
0.36,1.25,12.55,-1.31,0.15,3.11,0.0,-0.06,-0.33,7820,2019-03-25 16:50:17:537
-1.11,1.34,9.13,-2.22,0.45,-0.64,-0.02,0.04,-0.21,7825,2019-03-25 16:50:17:542
-1.11,1.34,9.13,-2.22,0.45,-0.64,-0.02,0.04,-0.21,7832,2019-03-25 16:50:17:549
