ACCELEROMETER X (m/s²),ACCELEROMETER Y (m/s²),ACCELEROMETER Z (m/s²),LINEAR ACCELERATION X (m/s²),LINEAR ACCELERATION Y (m/s²),LINEAR ACCELERATION Z (m/s²),GYROSCOPE X (rad/s),GYROSCOPE Y (rad/s),GYROSCOPE Z (rad/s),Time since start in ms ,YYYY-MO-DD HH-MI-SS_SSS
0.43,0.56,9.92,-0.05,-0.06,0.03,0.0,0.0,0.0,6,2019-04-03 15:52:46:063
0.43,0.56,9.92,-0.05,-0.06,0.03,0.0,0.0,0.0,10,2019-04-03 15:52:46:067
0.43,0.56,9.92,-0.05,-0.06,0.03,0.0,0.0,0.0,15,2019-04-03 15:52:46:072
0.43,0.56,9.92,-0.05,-0.06,0.03,0.0,0.0,0.0,21,2019-04-03 15:52:46:078
0.43,0.56,9.92,-0.05,-0.06,0.03,0.0,0.0,0.0,25,2019-04-03 15:52:46:082
0.42,0.72,9.81,-0.05,-0.06,0.03,0.0,0.0,0.0,30,2019-04-03 15:52:46:087
0.42,0.72,9.81,-0.06,0.09,-0.06,0.0,0.0,0.0,35,2019-04-03 15:52:46:092
0.42,0.72,9.81,-0.06,0.09,-0.06,0.0,0.0,0.0,39,2019-04-03 15:52:46:096
0.42,0.72,9.81,-0.06,0.09,-0.06,0.0,0.0,0.0,44,2019-04-03 15:52:46:101
0.42,0.72,9.81,-0.06,0.09,-0.06,0.0,0.0,0.0,49,2019-04-03 15:52:46:106
0.42,0.72,9.81,-0.06,0.09,-0.06,0.0,0.0,0.0,56,2019-04-03 15:52:46:113
0.42,0.72,9.81,-0.06,0.09,-0.06,0.0,0.0,0.0,60,2019-04-03 15:52:46:117
0.5,0.66,9.87,0.0,0.0,0.01,0.0,0.0,0.0,64,2019-04-03 15:52:46:121
0.5,0.66,9.87,0.0,0.0,0.01,0.0,0.0,0.0,70,2019-04-03 15:52:46:127
0.5,0.66,9.87,0.0,0.0,0.01,0.0,0.0,0.0,75,2019-04-03 15:52:46:132
0.56,0.72,9.86,0.0,0.0,0.01,0.0,0.0,0.0,81,2019-04-03 15:52:46:138
0.56,0.72,9.86,0.05,0.05,0.0,0.0,0.0,0.0,85,2019-04-03 15:52:46:142
0.56,0.72,9.86,0.05,0.05,0.0,0.0,0.0,0.0,90,2019-04-03 15:52:46:147
0.56,0.72,9.86,0.05,0.05,0.0,0.0,0.0,0.0,95,2019-04-03 15:52:46:152
0.56,0.72,9.86,0.05,0.05,0.0,0.0,0.0,0.0,100,2019-04-03 15:52:46:157
0.56,0.72,9.86,0.05,0.05,0.0,0.0,0.0,0.0,105,2019-04-03 15:52:46:162
0.56,0.72,9.86,0.05,0.05,0.0,0.0,0.0,0.0,110,2019-04-03 15:52:46:167
0.62,0.75,9.87,0.11,0.08,0.0,0.0,0.0,0.0,115,2019-04-03 15:52:46:172
0.62,0.75,9.87,0.11,0.08,0.0,0.0,0.0,0.0,120,2019-04-03 15:52:46:177
0.62,0.75,9.87,0.11,0.08,0.0,0.0,0.0,0.0,125,2019-04-03 15:52:46:182
0.62,0.75,9.87,0.11,0.08,0.0,0.0,0.0,0.0,130,2019-04-03 15:52:46:187
0.42,0.66,9.79,-0.07,-0.01,-0.06,0.0,0.0,0.0,135,2019-04-03 15:52:46:192
0.42,0.66,9.79,-0.07,-0.01,-0.06,0.0,0.0,0.0,140,2019-04-03 15:52:46:197
0.42,0.66,9.79,-0.07,-0.01,-0.06,0.0,0.0,0.0,145,2019-04-03 15:52:46:202
0.42,0.66,9.79,-0.07,-0.01,-0.06,0.0,0.0,0.0,150,2019-04-03 15:52:46:207
0.42,0.66,9.79,-0.07,-0.01,-0.06,0.0,0.0,0.0,155,2019-04-03 15:52:46:212
0.42,0.66,9.79,-0.07,-0.01,-0.06,0.0,0.0,0.0,160,2019-04-03 15:52:46:217
0.43,0.64,9.28,-0.07,-0.02,-0.54,0.0,0.0,0.0,165,2019-04-03 15:52:46:222
0.43,0.64,9.28,-0.07,-0.02,-0.54,0.0,0.0,0.0,170,2019-04-03 15:52:46:227
0.43,0.64,9.28,-0.07,-0.02,-0.54,0.0,0.0,0.0,175,2019-04-03 15:52:46:232
0.43,0.64,9.28,-0.07,-0.02,-0.54,0.0,0.0,0.0,180,2019-04-03 15:52:46:237
1.44,0.46,9.63,0.9,-0.19,-0.12,0.0,-0.04,-0.01,185,2019-04-03 15:52:46:242
1.44,0.46,9.63,0.9,-0.19,-0.12,0.0,-0.04,-0.01,190,2019-04-03 15:52:46:247
1.44,0.46,9.63,0.9,-0.19,-0.12,0.0,-0.04,-0.01,195,2019-04-03 15:52:46:252
0.55,1.1,9.05,0.9,-0.19,-0.12,0.0,-0.04,-0.01,201,2019-04-03 15:52:46:258
0.55,1.1,9.05,0.04,0.42,-0.62,0.02,0.03,0.0,206,2019-04-03 15:52:46:263
0.55,1.1,9.05,0.04,0.42,-0.62,0.02,0.03,0.0,210,2019-04-03 15:52:46:267
0.55,1.1,9.05,0.04,0.42,-0.62,0.02,0.03,0.0,215,2019-04-03 15:52:46:272
0.55,1.1,9.05,0.04,0.42,-0.62,0.02,0.03,0.0,220,2019-04-03 15:52:46:277
0.15,0.45,9.26,-0.36,-0.2,-0.37,-0.02,0.01,0.0,225,2019-04-03 15:52:46:282
0.15,0.45,9.26,-0.36,-0.2,-0.37,-0.02,0.01,0.0,230,2019-04-03 15:52:46:287
0.15,0.45,9.26,-0.36,-0.2,-0.37,-0.02,0.01,0.0,235,2019-04-03 15:52:46:292
0.61,0.59,9.53,0.08,-0.07,-0.06,0.0,-0.02,0.0,240,2019-04-03 15:52:46:297
0.61,0.59,9.53,0.08,-0.07,-0.06,0.0,-0.02,0.0,245,2019-04-03 15:52:46:302
0.61,0.59,9.53,0.08,-0.07,-0.06,0.0,-0.02,0.0,252,2019-04-03 15:52:46:309
0.61,0.59,9.53,0.08,-0.07,-0.06,0.0,-0.02,0.0,255,2019-04-03 15:52:46:312
0.61,0.59,9.53,0.08,-0.07,-0.06,0.0,-0.02,0.0,260,2019-04-03 15:52:46:317
0.69,0.88,9.78,0.16,0.21,0.18,0.01,-0.01,0.0,265,2019-04-03 15:52:46:322
0.69,0.88,9.78,0.16,0.21,0.18,0.01,-0.01,0.0,270,2019-04-03 15:52:46:327
0.69,0.88,9.78,0.16,0.21,0.18,0.01,-0.01,0.0,276,2019-04-03 15:52:46:333
0.59,0.52,9.92,0.16,0.21,0.18,-0.01,0.0,0.0,280,2019-04-03 15:52:46:337
0.59,0.52,9.92,0.05,-0.12,0.32,-0.01,0.0,0.0,285,2019-04-03 15:52:46:342
0.59,0.52,9.92,0.05,-0.12,0.32,-0.01,0.0,0.0,290,2019-04-03 15:52:46:347
0.59,0.52,9.92,0.05,-0.12,0.32,-0.01,0.0,0.0,295,2019-04-03 15:52:46:352
0.39,0.59,9.77,-0.13,-0.05,0.18,0.0,0.0,0.0,300,2019-04-03 15:52:46:357
0.39,0.59,9.77,-0.13,-0.05,0.18,0.0,0.0,0.0,305,2019-04-03 15:52:46:362
0.39,0.59,9.77,-0.13,-0.05,0.18,0.0,0.0,0.0,310,2019-04-03 15:52:46:367
0.39,0.59,9.77,-0.13,-0.05,0.18,0.0,0.0,0.0,315,2019-04-03 15:52:46:372
0.39,0.59,9.77,-0.13,-0.05,0.18,0.0,0.0,0.0,320,2019-04-03 15:52:46:377
0.39,0.59,9.77,-0.13,-0.05,0.18,0.0,0.0,0.0,325,2019-04-03 15:52:46:382
0.39,0.59,9.77,-0.13,-0.05,0.18,0.0,0.0,0.0,330,2019-04-03 15:52:46:387
0.43,0.74,9.66,-0.11,0.09,0.08,0.0,0.0,0.0,335,2019-04-03 15:52:46:392
0.43,0.74,9.66,-0.11,0.09,0.08,0.0,0.0,0.0,340,2019-04-03 15:52:46:397
0.43,0.74,9.66,-0.11,0.09,0.08,0.0,0.0,0.0,345,2019-04-03 15:52:46:402
0.5,0.54,9.9,-0.11,0.09,0.08,-0.01,0.0,0.0,350,2019-04-03 15:52:46:407
0.5,0.54,9.9,-0.04,-0.09,0.28,-0.01,0.0,0.0,355,2019-04-03 15:52:46:412
0.5,0.54,9.9,-0.04,-0.09,0.28,-0.01,0.0,0.0,360,2019-04-03 15:52:46:417
0.5,0.54,9.9,-0.04,-0.09,0.28,-0.01,0.0,0.0,365,2019-04-03 15:52:46:422
0.5,0.54,9.9,-0.04,-0.09,0.28,-0.01,0.0,0.0,371,2019-04-03 15:52:46:428
0.5,0.54,9.9,-0.04,-0.09,0.28,-0.01,0.0,0.0,375,2019-04-03 15:52:46:432
0.43,0.57,9.87,-0.04,-0.09,0.28,-0.01,0.0,0.0,380,2019-04-03 15:52:46:437
0.43,0.57,9.87,-0.1,-0.07,0.25,0.0,0.0,0.0,385,2019-04-03 15:52:46:442
0.43,0.57,9.87,-0.1,-0.07,0.25,0.0,0.0,0.0,390,2019-04-03 15:52:46:447
0.43,0.57,9.87,-0.1,-0.07,0.25,0.0,0.0,0.0,395,2019-04-03 15:52:46:452
0.49,0.53,9.91,-0.03,-0.1,0.15,0.0,0.0,0.0,400,2019-04-03 15:52:46:457
0.49,0.53,9.91,-0.03,-0.1,0.15,0.0,0.0,0.0,405,2019-04-03 15:52:46:462
0.49,0.53,9.91,-0.03,-0.1,0.15,0.0,0.0,0.0,410,2019-04-03 15:52:46:467
0.49,0.53,9.91,-0.03,-0.1,0.15,0.0,0.0,0.0,415,2019-04-03 15:52:46:472
0.49,0.53,9.91,-0.03,-0.1,0.15,0.0,0.0,0.0,420,2019-04-03 15:52:46:477
0.49,0.53,9.91,-0.03,-0.1,0.15,0.0,0.0,0.0,425,2019-04-03 15:52:46:482
0.32,0.64,9.81,-0.19,-0.01,0.0,0.0,0.0,0.0,430,2019-04-03 15:52:46:487
0.32,0.64,9.81,-0.19,-0.01,0.0,0.0,0.0,0.0,435,2019-04-03 15:52:46:492
0.32,0.64,9.81,-0.19,-0.01,0.0,0.0,0.0,0.0,441,2019-04-03 15:52:46:498
0.32,0.64,9.81,-0.19,-0.01,0.0,0.0,0.0,0.0,445,2019-04-03 15:52:46:502
0.48,0.65,9.83,-0.19,-0.01,0.0,0.0,0.0,0.0,450,2019-04-03 15:52:46:507
0.48,0.65,9.83,-0.02,0.0,0.0,0.0,0.0,0.0,455,2019-04-03 15:52:46:512
0.48,0.65,9.83,-0.02,0.0,0.0,0.0,0.0,0.0,460,2019-04-03 15:52:46:517
0.48,0.65,9.83,-0.02,0.0,0.0,0.0,0.0,0.0,465,2019-04-03 15:52:46:522
0.56,0.6,10.0,0.06,-0.03,0.14,0.0,0.0,0.0,471,2019-04-03 15:52:46:528
0.56,0.6,10.0,0.06,-0.03,0.14,0.0,0.0,0.0,477,2019-04-03 15:52:46:534
0.56,0.6,10.0,0.06,-0.03,0.14,0.0,0.0,0.0,480,2019-04-03 15:52:46:537
0.56,0.6,10.0,0.06,-0.03,0.14,0.0,0.0,0.0,487,2019-04-03 15:52:46:544
0.48,0.55,9.85,-0.01,-0.08,0.0,0.0,0.0,0.0,490,2019-04-03 15:52:46:547
0.48,0.55,9.85,-0.01,-0.08,0.0,0.0,0.0,0.0,495,2019-04-03 15:52:46:552
0.48,0.55,9.85,-0.01,-0.08,0.0,0.0,0.0,0.0,500,2019-04-03 15:52:46:557
0.49,0.64,9.88,0.0,0.01,0.01,0.0,0.0,0.0,514,2019-04-03 15:52:46:571
0.49,0.64,9.88,0.0,0.01,0.01,0.0,0.0,0.0,515,2019-04-03 15:52:46:572
0.49,0.64,9.88,0.0,0.01,0.01,0.0,0.0,0.0,515,2019-04-03 15:52:46:572
0.49,0.64,9.88,0.0,0.01,0.01,0.0,0.0,0.0,520,2019-04-03 15:52:46:577
0.49,0.64,9.88,0.0,0.01,0.01,0.0,0.0,0.0,525,2019-04-03 15:52:46:582
0.52,0.65,9.88,0.03,0.02,0.0,0.0,0.0,0.0,530,2019-04-03 15:52:46:587
0.52,0.65,9.88,0.03,0.02,0.0,0.0,0.0,0.0,535,2019-04-03 15:52:46:592
0.52,0.65,9.88,0.03,0.02,0.0,0.0,0.0,0.0,540,2019-04-03 15:52:46:597
0.52,0.65,9.88,0.03,0.02,0.0,0.0,0.0,0.0,545,2019-04-03 15:52:46:602
0.52,0.65,9.88,0.03,0.02,0.0,0.0,0.0,0.0,550,2019-04-03 15:52:46:607
0.52,0.65,9.88,0.03,0.02,0.0,0.0,0.0,0.0,555,2019-04-03 15:52:46:612
0.53,0.63,9.92,0.03,0.0,0.04,0.0,0.0,0.0,564,2019-04-03 15:52:46:621
0.53,0.63,9.92,0.03,0.0,0.04,0.0,0.0,0.0,566,2019-04-03 15:52:46:623
0.53,0.63,9.92,0.03,0.0,0.04,0.0,0.0,0.0,569,2019-04-03 15:52:46:626
0.53,0.63,9.92,0.03,0.0,0.04,0.0,0.0,0.0,576,2019-04-03 15:52:46:633
0.53,0.63,9.92,0.03,0.0,0.04,0.0,0.0,0.0,580,2019-04-03 15:52:46:637
0.54,0.67,9.87,0.04,0.05,0.0,0.0,0.0,0.0,585,2019-04-03 15:52:46:642
0.54,0.67,9.87,0.04,0.05,0.0,0.0,0.0,0.0,590,2019-04-03 15:52:46:647
0.54,0.67,9.87,0.04,0.05,0.0,0.0,0.0,0.0,595,2019-04-03 15:52:46:652
0.5,0.69,9.86,0.04,0.05,0.0,0.0,0.0,0.0,600,2019-04-03 15:52:46:657
0.5,0.69,9.86,0.0,0.06,-0.01,0.0,0.0,0.0,605,2019-04-03 15:52:46:662
0.5,0.69,9.86,0.0,0.06,-0.01,0.0,0.0,0.0,610,2019-04-03 15:52:46:667
0.5,0.69,9.86,0.0,0.06,-0.01,0.0,0.0,0.0,615,2019-04-03 15:52:46:672
0.5,0.7,9.85,0.0,0.07,-0.01,0.0,0.0,0.0,620,2019-04-03 15:52:46:677
0.5,0.7,9.85,0.0,0.07,-0.01,0.0,0.0,0.0,625,2019-04-03 15:52:46:682
0.5,0.7,9.85,0.0,0.07,-0.01,0.0,0.0,0.0,630,2019-04-03 15:52:46:687
0.5,0.7,9.85,0.0,0.07,-0.01,0.0,0.0,0.0,635,2019-04-03 15:52:46:692
-0.46,0.53,9.9,-0.9,-0.09,0.03,0.0,0.0,0.0,640,2019-04-03 15:52:46:697
-0.46,0.53,9.9,-0.9,-0.09,0.03,0.0,0.0,0.0,645,2019-04-03 15:52:46:702
-0.46,0.53,9.9,-0.9,-0.09,0.03,0.0,0.0,0.0,650,2019-04-03 15:52:46:707
-0.46,0.53,9.9,-0.9,-0.09,0.03,0.0,0.0,0.0,655,2019-04-03 15:52:46:712
1.99,1.03,11.82,-0.9,-0.09,0.03,0.0,0.0,0.0,662,2019-04-03 15:52:46:719
1.99,1.03,11.82,1.47,0.36,1.89,0.01,-0.07,-0.04,665,2019-04-03 15:52:46:722
1.99,1.03,11.82,1.47,0.36,1.89,0.01,-0.07,-0.04,669,2019-04-03 15:52:46:726
1.99,1.03,11.82,1.47,0.36,1.89,0.01,-0.07,-0.04,675,2019-04-03 15:52:46:732
1.99,1.03,11.82,1.47,0.36,1.89,0.01,-0.07,-0.04,679,2019-04-03 15:52:46:736
0.6,1.72,9.76,0.02,0.89,-0.02,0.0,0.04,0.01,685,2019-04-03 15:52:46:742
0.6,1.72,9.76,0.02,0.89,-0.02,0.0,0.04,0.01,690,2019-04-03 15:52:46:747
0.6,1.72,9.76,0.02,0.89,-0.02,0.0,0.04,0.01,696,2019-04-03 15:52:46:753
0.6,1.72,9.76,0.02,0.89,-0.02,0.0,0.04,0.01,700,2019-04-03 15:52:46:757
-0.83,0.79,9.12,-1.3,0.0,-0.66,-0.01,0.03,0.03,706,2019-04-03 15:52:46:763
-0.83,0.79,9.12,-1.3,0.0,-0.66,-0.01,0.03,0.03,710,2019-04-03 15:52:46:767
-0.83,0.79,9.12,-1.3,0.0,-0.66,-0.01,0.03,0.03,715,2019-04-03 15:52:46:772
0.64,0.25,9.81,0.15,-0.56,0.0,-0.05,-0.03,0.01,720,2019-04-03 15:52:46:777
0.64,0.25,9.81,0.15,-0.56,0.0,-0.05,-0.03,0.01,725,2019-04-03 15:52:46:782
0.64,0.25,9.81,0.15,-0.56,0.0,-0.05,-0.03,0.01,730,2019-04-03 15:52:46:787
0.64,0.25,9.81,0.15,-0.56,0.0,-0.05,-0.03,0.01,735,2019-04-03 15:52:46:792
0.97,2.01,9.42,0.45,1.11,-0.36,0.07,-0.01,0.03,740,2019-04-03 15:52:46:797
0.97,2.01,9.42,0.45,1.11,-0.36,0.07,-0.01,0.03,745,2019-04-03 15:52:46:802
0.97,2.01,9.42,0.45,1.11,-0.36,0.07,-0.01,0.03,750,2019-04-03 15:52:46:807
0.97,2.01,9.42,0.45,1.11,-0.36,0.07,-0.01,0.03,755,2019-04-03 15:52:46:812
0.47,0.64,10.23,0.45,1.11,-0.36,-0.04,0.0,0.02,760,2019-04-03 15:52:46:817
0.47,0.64,10.23,-0.02,-0.25,0.41,-0.04,0.0,0.02,766,2019-04-03 15:52:46:823
0.47,0.64,10.23,-0.02,-0.25,0.41,-0.04,0.0,0.02,770,2019-04-03 15:52:46:827
0.47,0.64,10.23,-0.02,-0.25,0.41,-0.04,0.0,0.02,775,2019-04-03 15:52:46:832
0.47,0.64,10.23,-0.02,-0.25,0.41,-0.04,0.0,0.02,780,2019-04-03 15:52:46:837
0.47,0.64,10.23,-0.02,-0.25,0.41,-0.04,0.0,0.02,785,2019-04-03 15:52:46:842
1.01,1.05,10.26,-0.02,-0.25,0.41,0.0,-0.02,0.01,790,2019-04-03 15:52:46:847
1.01,1.05,10.26,0.5,0.1,0.44,0.0,-0.02,0.01,794,2019-04-03 15:52:46:851
1.01,1.05,10.26,0.5,0.1,0.44,0.0,-0.02,0.01,800,2019-04-03 15:52:46:857
1.01,1.05,10.26,0.5,0.1,0.44,0.03,0.02,0.04,805,2019-04-03 15:52:46:862
1.01,1.05,10.26,0.5,0.1,0.44,0.03,0.02,0.04,810,2019-04-03 15:52:46:867
1.01,1.05,10.26,0.5,0.1,0.44,0.03,0.02,0.04,815,2019-04-03 15:52:46:872
1.01,1.05,10.26,0.5,0.1,0.44,0.03,0.02,0.04,820,2019-04-03 15:52:46:877
1.01,1.05,10.26,0.5,0.1,0.44,0.03,0.02,0.04,825,2019-04-03 15:52:46:882
1.01,1.05,10.26,0.5,0.1,0.44,0.03,0.02,0.04,830,2019-04-03 15:52:46:887
0.53,0.79,9.86,0.02,-0.24,0.04,-0.03,0.0,0.05,836,2019-04-03 15:52:46:893
0.53,0.79,9.86,0.02,-0.24,0.04,-0.03,0.0,0.05,840,2019-04-03 15:52:46:897
0.53,0.79,9.86,0.02,-0.24,0.04,-0.03,0.0,0.05,845,2019-04-03 15:52:46:902
0.83,1.28,10.01,0.24,0.17,0.2,0.0,0.0,0.08,851,2019-04-03 15:52:46:908
0.83,1.28,10.01,0.24,0.17,0.2,0.0,0.0,0.08,855,2019-04-03 15:52:46:912
0.83,1.28,10.01,0.24,0.17,0.2,0.0,0.0,0.08,860,2019-04-03 15:52:46:917
0.59,1.34,9.64,0.24,0.17,0.2,0.01,0.0,0.1,871,2019-04-03 15:52:46:928
0.59,1.34,9.64,0.24,0.17,0.2,0.01,0.0,0.1,872,2019-04-03 15:52:46:929
0.59,1.34,9.64,0.24,0.17,0.2,0.01,0.0,0.1,875,2019-04-03 15:52:46:932
0.59,1.34,9.64,0.24,0.17,0.2,0.01,0.0,0.1,879,2019-04-03 15:52:46:936
0.33,0.63,10.16,-0.14,-0.37,0.27,-0.02,0.01,0.11,885,2019-04-03 15:52:46:942
0.33,0.63,10.16,-0.14,-0.37,0.27,-0.02,0.01,0.11,891,2019-04-03 15:52:46:948
0.33,0.63,10.16,-0.14,-0.37,0.27,-0.02,0.01,0.11,895,2019-04-03 15:52:46:952
0.38,0.96,9.78,-0.18,-0.11,-0.09,0.01,0.0,0.12,900,2019-04-03 15:52:46:957
0.38,0.96,9.78,-0.18,-0.11,-0.09,0.01,0.0,0.12,905,2019-04-03 15:52:46:962
0.38,0.96,9.78,-0.18,-0.11,-0.09,0.01,0.0,0.12,910,2019-04-03 15:52:46:967
0.38,0.96,9.78,-0.18,-0.11,-0.09,0.01,0.0,0.12,915,2019-04-03 15:52:46:972
0.56,0.75,9.89,0.0,-0.29,0.03,0.0,0.0,0.12,920,2019-04-03 15:52:46:977
0.56,0.75,9.89,0.0,-0.29,0.03,0.0,0.0,0.12,925,2019-04-03 15:52:46:982
0.56,0.75,9.89,0.0,-0.29,0.03,0.0,0.0,0.12,930,2019-04-03 15:52:46:987
0.56,0.75,9.89,0.0,-0.29,0.03,0.0,0.0,0.12,935,2019-04-03 15:52:46:992
0.71,0.42,10.11,0.18,-0.55,0.23,-0.02,-0.01,0.12,940,2019-04-03 15:52:46:997
0.71,0.42,10.11,0.18,-0.55,0.23,-0.02,-0.01,0.12,946,2019-04-03 15:52:47:003
0.71,0.42,10.11,0.18,-0.55,0.23,-0.02,-0.01,0.12,949,2019-04-03 15:52:47:006
0.71,0.42,10.11,0.18,-0.55,0.23,-0.02,-0.01,0.12,955,2019-04-03 15:52:47:012
0.45,0.78,9.8,0.18,-0.55,0.23,-0.02,-0.01,0.12,960,2019-04-03 15:52:47:017
0.45,0.78,9.8,-0.09,-0.18,-0.06,0.01,0.01,0.12,965,2019-04-03 15:52:47:022
0.45,0.78,9.8,-0.09,-0.18,-0.06,0.01,0.01,0.12,970,2019-04-03 15:52:47:027
0.45,0.78,9.8,-0.09,-0.18,-0.06,0.01,0.01,0.12,975,2019-04-03 15:52:47:032
0.45,0.78,9.8,0.01,-0.23,0.04,-0.01,0.0,0.13,980,2019-04-03 15:52:47:037
0.54,0.67,9.91,0.01,-0.23,0.04,-0.01,0.0,0.13,985,2019-04-03 15:52:47:042
0.54,0.67,9.91,0.01,-0.23,0.04,-0.01,0.0,0.13,990,2019-04-03 15:52:47:047
0.54,0.67,9.91,0.01,-0.23,0.04,-0.01,0.0,0.13,995,2019-04-03 15:52:47:052
0.44,0.28,10.21,0.01,-0.23,0.04,-0.02,0.0,0.13,1000,2019-04-03 15:52:47:057
0.44,0.28,10.21,-0.1,-0.55,0.32,-0.02,0.0,0.13,1004,2019-04-03 15:52:47:061
0.44,0.28,10.21,-0.1,-0.55,0.32,-0.02,0.0,0.13,1011,2019-04-03 15:52:47:068
0.44,0.28,10.21,-0.1,-0.55,0.32,-0.02,0.0,0.13,1015,2019-04-03 15:52:47:072
0.35,1.31,10.14,-0.15,0.45,0.23,0.0,0.0,0.12,1020,2019-04-03 15:52:47:077
0.35,1.31,10.14,-0.15,0.45,0.23,0.0,0.0,0.12,1025,2019-04-03 15:52:47:082
0.35,1.31,10.14,-0.15,0.45,0.23,0.0,0.0,0.12,1030,2019-04-03 15:52:47:087
0.35,1.31,10.14,-0.15,0.45,0.23,0.0,0.0,0.12,1035,2019-04-03 15:52:47:092
0.8,0.72,9.9,0.31,-0.06,0.0,-0.03,0.0,0.12,1040,2019-04-03 15:52:47:097
0.8,0.72,9.9,0.31,-0.06,0.0,-0.03,0.0,0.12,1045,2019-04-03 15:52:47:102
0.8,0.72,9.9,0.31,-0.06,0.0,-0.03,0.0,0.12,1050,2019-04-03 15:52:47:107
0.8,0.72,9.9,0.31,-0.06,0.0,-0.03,0.0,0.12,1055,2019-04-03 15:52:47:112
0.9,0.53,9.84,0.31,-0.06,0.0,-0.03,0.0,0.12,1060,2019-04-03 15:52:47:117
0.9,0.53,9.84,0.38,-0.2,-0.06,-0.02,0.0,0.12,1065,2019-04-03 15:52:47:122
0.9,0.53,9.84,0.38,-0.2,-0.06,-0.02,0.0,0.12,1070,2019-04-03 15:52:47:127
0.9,0.53,9.84,0.38,-0.2,-0.06,-0.02,0.0,0.12,1075,2019-04-03 15:52:47:132
0.48,1.02,9.59,-0.02,0.3,-0.28,0.0,0.0,0.12,1079,2019-04-03 15:52:47:136
0.48,1.02,9.59,-0.02,0.3,-0.28,0.0,0.0,0.12,1085,2019-04-03 15:52:47:142
0.48,1.02,9.59,-0.02,0.3,-0.28,0.0,0.0,0.12,1089,2019-04-03 15:52:47:146
0.48,1.02,9.59,-0.02,0.3,-0.28,0.0,0.0,0.12,1095,2019-04-03 15:52:47:152
0.07,0.51,9.91,-0.4,-0.16,0.01,-0.04,0.01,0.11,1100,2019-04-03 15:52:47:157
0.07,0.51,9.91,-0.4,-0.16,0.01,-0.04,0.01,0.11,1106,2019-04-03 15:52:47:163
0.07,0.51,9.91,-0.4,-0.16,0.01,-0.04,0.01,0.11,1110,2019-04-03 15:52:47:167
0.07,0.51,9.91,-0.4,-0.16,0.01,-0.04,0.01,0.11,1114,2019-04-03 15:52:47:171
0.31,0.45,9.85,-0.4,-0.16,0.01,-0.03,0.0,0.08,1119,2019-04-03 15:52:47:176
0.31,0.45,9.85,-0.14,-0.21,-0.04,-0.03,0.0,0.08,1125,2019-04-03 15:52:47:182
0.31,0.45,9.85,-0.14,-0.21,-0.04,-0.03,0.0,0.08,1130,2019-04-03 15:52:47:187
0.31,0.45,9.85,-0.14,-0.21,-0.04,-0.03,0.0,0.08,1135,2019-04-03 15:52:47:192
0.73,0.35,9.87,0.25,-0.28,-0.01,-0.01,-0.01,0.05,1140,2019-04-03 15:52:47:197
0.73,0.35,9.87,0.25,-0.28,-0.01,-0.01,-0.01,0.05,1145,2019-04-03 15:52:47:202
0.73,0.35,9.87,0.25,-0.28,-0.01,-0.01,-0.01,0.05,1150,2019-04-03 15:52:47:207
0.73,0.35,9.87,0.25,-0.28,-0.01,-0.01,-0.01,0.05,1155,2019-04-03 15:52:47:212
0.51,0.53,10.11,0.25,-0.28,-0.01,-0.01,-0.01,0.05,1160,2019-04-03 15:52:47:217
0.51,0.53,10.11,0.04,-0.06,0.21,-0.02,0.0,0.03,1165,2019-04-03 15:52:47:222
0.51,0.53,10.11,0.04,-0.06,0.21,-0.02,0.0,0.03,1170,2019-04-03 15:52:47:227
0.51,0.53,10.11,0.04,-0.06,0.21,-0.02,0.0,0.03,1175,2019-04-03 15:52:47:232
0.51,0.53,10.11,0.04,-0.06,0.21,-0.02,0.0,0.03,1179,2019-04-03 15:52:47:236
0.06,0.42,9.96,-0.37,-0.19,0.07,0.0,0.01,0.01,1186,2019-04-03 15:52:47:243
0.06,0.42,9.96,-0.37,-0.19,0.07,0.0,0.01,0.01,1190,2019-04-03 15:52:47:247
0.06,0.42,9.96,-0.37,-0.19,0.07,0.0,0.01,0.01,1195,2019-04-03 15:52:47:252
0.03,0.41,9.31,-0.37,-0.19,0.07,0.0,0.01,0.01,1200,2019-04-03 15:52:47:257
0.03,0.41,9.31,-0.39,-0.17,-0.55,0.01,-0.01,-0.01,1205,2019-04-03 15:52:47:262
0.03,0.41,9.31,-0.39,-0.17,-0.55,0.01,-0.01,-0.01,1210,2019-04-03 15:52:47:267
0.03,0.41,9.31,-0.39,-0.17,-0.55,0.01,-0.01,-0.01,1215,2019-04-03 15:52:47:272
0.72,-0.27,10.62,0.26,-0.77,0.72,-0.02,-0.04,-0.04,1220,2019-04-03 15:52:47:277
0.72,-0.27,10.62,0.26,-0.77,0.72,-0.02,-0.04,-0.04,1225,2019-04-03 15:52:47:282
0.72,-0.27,10.62,0.26,-0.77,0.72,-0.02,-0.04,-0.04,1230,2019-04-03 15:52:47:287
0.72,-0.27,10.62,0.26,-0.77,0.72,-0.02,-0.04,-0.04,1235,2019-04-03 15:52:47:292
1.24,-0.03,10.63,0.8,-0.47,0.72,0.0,-0.05,-0.08,1240,2019-04-03 15:52:47:297
1.24,-0.03,10.63,0.8,-0.47,0.72,0.0,-0.05,-0.08,1245,2019-04-03 15:52:47:302
1.24,-0.03,10.63,0.8,-0.47,0.72,0.0,-0.05,-0.08,1249,2019-04-03 15:52:47:306
1.24,-0.03,10.63,0.8,-0.47,0.72,0.0,-0.05,-0.08,1255,2019-04-03 15:52:47:312
1.24,-0.03,10.63,0.8,-0.47,0.72,0.0,-0.05,-0.08,1260,2019-04-03 15:52:47:317
0.44,-0.17,9.85,0.06,-0.52,-0.07,0.0,0.0,-0.11,1265,2019-04-03 15:52:47:322
0.44,-0.17,9.85,0.06,-0.52,-0.07,0.0,0.0,-0.11,1270,2019-04-03 15:52:47:327
0.44,-0.17,9.85,0.06,-0.52,-0.07,0.0,0.0,-0.11,1275,2019-04-03 15:52:47:332
0.44,-0.17,9.85,0.06,-0.52,-0.07,0.0,0.0,-0.11,1281,2019-04-03 15:52:47:338
0.44,-0.17,9.85,0.06,-0.52,-0.07,0.0,0.0,-0.11,1285,2019-04-03 15:52:47:342
0.44,-0.17,9.85,0.06,-0.52,-0.07,0.0,0.0,-0.11,1290,2019-04-03 15:52:47:347
0.44,-0.17,9.85,0.06,-0.52,-0.07,0.0,0.0,-0.11,1295,2019-04-03 15:52:47:352
0.13,-0.05,9.72,0.06,-0.52,-0.07,-0.01,-0.01,-0.19,1300,2019-04-03 15:52:47:357
0.13,-0.05,9.72,-0.24,-0.23,-0.19,-0.01,-0.01,-0.19,1304,2019-04-03 15:52:47:361
0.13,-0.05,9.72,-0.24,-0.23,-0.19,-0.01,-0.01,-0.19,1309,2019-04-03 15:52:47:366
0.13,-0.05,9.72,-0.24,-0.23,-0.19,-0.01,-0.01,-0.19,1315,2019-04-03 15:52:47:372
0.35,0.01,9.96,-0.02,-0.08,0.02,-0.02,-0.02,-0.22,1320,2019-04-03 15:52:47:377
0.35,0.01,9.96,-0.02,-0.08,0.02,-0.02,-0.02,-0.22,1325,2019-04-03 15:52:47:382
0.35,0.01,9.96,-0.02,-0.08,0.02,-0.02,-0.02,-0.22,1329,2019-04-03 15:52:47:386
0.35,0.01,9.96,-0.02,-0.08,0.02,-0.02,-0.02,-0.22,1335,2019-04-03 15:52:47:392
0.49,0.07,9.89,0.14,0.0,-0.05,-0.02,-0.02,-0.25,1340,2019-04-03 15:52:47:397
0.49,0.07,9.89,0.14,0.0,-0.05,-0.02,-0.02,-0.25,1346,2019-04-03 15:52:47:403
0.49,0.07,9.89,0.14,0.0,-0.05,-0.02,-0.02,-0.25,1351,2019-04-03 15:52:47:408
0.49,0.07,9.89,0.14,0.0,-0.05,-0.02,-0.02,-0.25,1356,2019-04-03 15:52:47:413
0.64,0.48,9.88,0.14,0.0,-0.05,-0.02,-0.02,-0.25,1360,2019-04-03 15:52:47:417
0.64,0.48,9.88,0.27,0.41,-0.05,-0.01,-0.01,-0.26,1365,2019-04-03 15:52:47:422
0.64,0.48,9.88,0.27,0.41,-0.05,-0.01,-0.01,-0.26,1373,2019-04-03 15:52:47:430
0.64,0.48,9.88,0.27,0.41,-0.05,-0.01,-0.01,-0.26,1374,2019-04-03 15:52:47:431
0.64,0.48,9.88,0.27,0.41,-0.05,-0.01,-0.01,-0.26,1380,2019-04-03 15:52:47:437
0.67,0.26,9.89,0.26,0.23,-0.03,-0.02,-0.01,-0.27,1385,2019-04-03 15:52:47:442
0.67,0.26,9.89,0.26,0.23,-0.03,-0.02,-0.01,-0.27,1390,2019-04-03 15:52:47:447
0.67,0.26,9.89,0.26,0.23,-0.03,-0.02,-0.01,-0.27,1395,2019-04-03 15:52:47:452
1.06,0.16,10.16,0.26,0.23,-0.03,-0.02,-0.03,-0.27,1400,2019-04-03 15:52:47:457
1.06,0.16,10.16,0.59,0.13,0.22,-0.02,-0.03,-0.27,1405,2019-04-03 15:52:47:462
1.06,0.16,10.16,0.59,0.13,0.22,-0.01,0.0,-0.25,1410,2019-04-03 15:52:47:467
0.91,0.49,9.74,0.37,0.41,-0.13,-0.01,0.0,-0.25,1415,2019-04-03 15:52:47:472
0.91,0.49,9.74,0.37,0.41,-0.13,-0.01,0.0,-0.25,1420,2019-04-03 15:52:47:477
0.91,0.49,9.74,0.37,0.41,-0.13,-0.01,0.0,-0.25,1425,2019-04-03 15:52:47:482
0.91,0.34,9.75,0.39,0.24,-0.08,-0.02,0.0,-0.23,1430,2019-04-03 15:52:47:487
0.91,0.34,9.75,0.39,0.24,-0.08,-0.02,0.0,-0.23,1435,2019-04-03 15:52:47:492
0.91,0.34,9.75,0.39,0.24,-0.08,-0.02,0.0,-0.23,1440,2019-04-03 15:52:47:497
0.91,0.34,9.75,0.39,0.24,-0.08,-0.02,0.0,-0.23,1445,2019-04-03 15:52:47:502
0.91,0.34,9.75,0.39,0.24,-0.08,-0.02,0.0,-0.23,1455,2019-04-03 15:52:47:512
0.91,0.34,9.75,0.39,0.24,-0.08,-0.02,0.0,-0.23,1456,2019-04-03 15:52:47:513
0.58,0.41,9.61,-0.01,0.24,-0.22,-0.01,0.01,-0.19,1464,2019-04-03 15:52:47:521
0.58,0.41,9.61,-0.01,0.24,-0.22,-0.01,0.01,-0.19,1464,2019-04-03 15:52:47:521
0.58,0.41,9.61,-0.01,0.24,-0.22,-0.01,0.01,-0.19,1470,2019-04-03 15:52:47:527
0.58,0.41,9.61,-0.01,0.24,-0.22,-0.01,0.01,-0.19,1475,2019-04-03 15:52:47:532
0.68,0.96,9.96,0.05,0.68,0.08,0.0,0.0,-0.14,1480,2019-04-03 15:52:47:537
0.68,0.96,9.96,0.05,0.68,0.08,0.0,0.0,-0.14,1485,2019-04-03 15:52:47:542
0.68,0.96,9.96,0.05,0.68,0.08,0.0,0.0,-0.14,1490,2019-04-03 15:52:47:547
0.68,0.96,9.96,0.05,0.68,0.08,0.0,0.03,-0.06,1496,2019-04-03 15:52:47:553
0.68,0.96,9.96,0.05,0.68,0.08,0.0,0.03,-0.06,1500,2019-04-03 15:52:47:557
0.68,0.96,9.96,0.05,0.68,0.08,0.0,0.03,-0.06,1505,2019-04-03 15:52:47:562
0.94,0.48,9.79,0.18,0.08,-0.02,0.0,0.02,-0.03,1511,2019-04-03 15:52:47:568
0.94,0.48,9.79,0.18,0.08,-0.02,0.0,0.02,-0.03,1516,2019-04-03 15:52:47:573
0.94,0.48,9.79,0.18,0.08,-0.02,0.0,0.02,-0.03,1520,2019-04-03 15:52:47:577
0.94,0.48,9.79,0.18,0.08,-0.02,0.0,0.02,-0.03,1525,2019-04-03 15:52:47:582
0.94,0.48,9.79,0.18,0.08,-0.02,0.0,0.02,-0.03,1531,2019-04-03 15:52:47:588
0.94,0.48,9.79,0.18,0.08,-0.02,0.0,0.02,-0.03,1535,2019-04-03 15:52:47:592
0.6,0.26,9.88,-0.18,-0.15,0.06,0.0,0.03,0.0,1540,2019-04-03 15:52:47:597
0.6,0.26,9.88,-0.18,-0.15,0.06,0.0,0.03,0.0,1546,2019-04-03 15:52:47:603
0.6,0.26,9.88,-0.18,-0.15,0.06,0.0,0.03,0.0,1550,2019-04-03 15:52:47:607
0.6,0.26,9.88,-0.18,-0.15,0.06,0.01,0.02,0.03,1555,2019-04-03 15:52:47:612
0.6,0.26,9.88,-0.18,-0.15,0.06,0.01,0.02,0.03,1561,2019-04-03 15:52:47:618
0.6,0.26,9.88,-0.18,-0.15,0.06,0.01,0.02,0.03,1566,2019-04-03 15:52:47:623
0.54,0.35,9.71,-0.22,-0.05,-0.09,0.0,0.02,0.03,1570,2019-04-03 15:52:47:627
0.54,0.35,9.71,-0.22,-0.05,-0.09,0.0,0.02,0.03,1575,2019-04-03 15:52:47:632
0.54,0.35,9.71,-0.22,-0.05,-0.09,0.0,0.02,0.03,1580,2019-04-03 15:52:47:637
0.54,0.35,9.71,-0.22,-0.05,-0.09,0.0,0.02,0.03,1586,2019-04-03 15:52:47:643
0.73,0.35,9.93,-0.01,-0.07,0.13,0.0,0.01,0.03,1590,2019-04-03 15:52:47:647
0.73,0.35,9.93,-0.01,-0.07,0.13,0.0,0.01,0.03,1596,2019-04-03 15:52:47:653
0.73,0.35,9.93,-0.01,-0.07,0.13,0.0,0.01,0.03,1601,2019-04-03 15:52:47:658
0.73,0.35,9.93,-0.01,-0.07,0.13,0.0,0.01,0.03,1605,2019-04-03 15:52:47:662
0.51,0.27,9.55,-0.01,-0.07,0.13,0.0,0.01,0.03,1612,2019-04-03 15:52:47:669
0.51,0.27,9.55,-0.2,-0.12,-0.24,0.0,0.03,0.03,1617,2019-04-03 15:52:47:674
0.51,0.27,9.55,-0.2,-0.12,-0.24,0.0,0.03,0.03,1620,2019-04-03 15:52:47:677
0.51,0.27,9.55,-0.2,-0.12,-0.24,0.0,0.03,0.03,1625,2019-04-03 15:52:47:682
0.51,0.27,9.54,-0.3,-0.31,-0.23,0.0,0.03,0.03,1630,2019-04-03 15:52:47:687
0.36,0.05,9.54,-0.3,-0.31,-0.23,0.0,0.03,0.03,1635,2019-04-03 15:52:47:692
0.36,0.05,9.54,-0.3,-0.31,-0.23,0.0,0.03,0.03,1640,2019-04-03 15:52:47:697
0.36,0.05,9.54,-0.3,-0.31,-0.23,0.0,0.03,0.03,1646,2019-04-03 15:52:47:703
0.26,0.34,9.69,-0.33,0.0,-0.07,0.01,0.02,0.02,1651,2019-04-03 15:52:47:708
0.26,0.34,9.69,-0.33,0.0,-0.07,0.01,0.02,0.02,1655,2019-04-03 15:52:47:712
0.26,0.34,9.69,-0.33,0.0,-0.07,0.01,0.02,0.02,1661,2019-04-03 15:52:47:718
0.32,0.23,9.81,-0.33,0.0,-0.07,0.0,0.01,0.02,1667,2019-04-03 15:52:47:724
0.32,0.23,9.81,-0.24,-0.05,0.07,0.0,0.01,0.02,1670,2019-04-03 15:52:47:727
0.32,0.23,9.81,-0.24,-0.05,0.07,0.0,0.01,0.02,1676,2019-04-03 15:52:47:733
0.32,0.23,9.81,-0.24,-0.05,0.07,0.0,0.01,0.02,1680,2019-04-03 15:52:47:737
0.32,0.23,9.81,-0.24,-0.05,0.07,0.0,0.01,0.02,1685,2019-04-03 15:52:47:742
0.4,0.3,9.83,-0.09,0.03,0.09,0.0,0.0,0.01,1689,2019-04-03 15:52:47:746
0.4,0.3,9.83,-0.09,0.03,0.09,0.0,0.0,0.01,1696,2019-04-03 15:52:47:753
0.4,0.3,9.83,-0.09,0.03,0.09,0.0,0.0,0.01,1700,2019-04-03 15:52:47:757
0.4,0.3,9.83,-0.09,0.03,0.09,0.0,0.0,0.01,1705,2019-04-03 15:52:47:762
0.36,0.42,9.94,-0.07,0.17,0.16,0.0,0.0,0.0,1711,2019-04-03 15:52:47:768
0.36,0.42,9.94,-0.07,0.17,0.16,0.0,0.0,0.0,1715,2019-04-03 15:52:47:772
0.36,0.42,9.94,-0.07,0.17,0.16,0.0,0.0,0.0,1720,2019-04-03 15:52:47:777
0.36,0.42,9.94,-0.07,0.17,0.16,0.0,0.0,0.0,1725,2019-04-03 15:52:47:782
0.36,0.42,9.94,-0.07,0.17,0.16,0.0,0.0,0.0,1730,2019-04-03 15:52:47:787
0.25,0.37,9.86,-0.16,0.11,0.08,0.0,0.0,0.0,1735,2019-04-03 15:52:47:792
0.25,0.37,9.86,-0.16,0.11,0.08,0.0,0.0,0.0,1741,2019-04-03 15:52:47:798
0.25,0.37,9.86,-0.16,0.11,0.08,0.0,0.0,0.0,1746,2019-04-03 15:52:47:803
0.42,0.38,9.84,0.01,0.1,0.06,0.0,-0.01,-0.01,1750,2019-04-03 15:52:47:807
0.42,0.38,9.84,0.01,0.1,0.06,0.0,-0.01,-0.01,1755,2019-04-03 15:52:47:812
0.42,0.38,9.84,0.01,0.1,0.06,0.0,-0.01,-0.01,1761,2019-04-03 15:52:47:818
0.42,0.38,9.84,0.01,0.1,0.06,0.0,-0.01,-0.01,1765,2019-04-03 15:52:47:822
0.49,0.27,9.99,0.01,0.1,0.06,0.0,-0.01,-0.01,1770,2019-04-03 15:52:47:827
0.49,0.27,9.99,0.09,0.0,0.21,0.0,-0.01,-0.02,1775,2019-04-03 15:52:47:832
0.49,0.27,9.99,0.09,0.0,0.21,0.0,-0.01,-0.02,1782,2019-04-03 15:52:47:839
0.49,0.27,9.99,0.09,0.0,0.21,0.0,-0.01,-0.02,1784,2019-04-03 15:52:47:841
0.34,-0.12,10.11,-0.02,-0.35,0.29,0.0,-0.01,-0.03,1790,2019-04-03 15:52:47:847
0.34,-0.12,10.11,-0.02,-0.35,0.29,0.0,-0.01,-0.03,1795,2019-04-03 15:52:47:852
0.34,-0.12,10.11,-0.02,-0.35,0.29,0.0,-0.01,-0.03,1801,2019-04-03 15:52:47:858
0.34,-0.12,10.11,-0.02,-0.35,0.29,0.0,-0.01,-0.03,1805,2019-04-03 15:52:47:862
0.34,-0.12,10.11,-0.02,-0.35,0.29,0.0,-0.01,-0.03,1811,2019-04-03 15:52:47:868
0.34,-0.12,10.11,-0.02,-0.35,0.29,0.0,-0.01,-0.03,1816,2019-04-03 15:52:47:873
0.51,0.57,10.05,0.13,0.32,0.2,0.01,-0.03,-0.06,1820,2019-04-03 15:52:47:877
0.51,0.57,10.05,0.13,0.32,0.2,0.01,-0.03,-0.06,1825,2019-04-03 15:52:47:882
0.51,0.57,10.05,0.13,0.32,0.2,0.01,-0.03,-0.06,1831,2019-04-03 15:52:47:888
0.61,0.51,10.32,0.22,0.22,0.43,0.0,0.0,-0.07,1835,2019-04-03 15:52:47:892
0.61,0.51,10.32,0.22,0.22,0.43,0.0,0.0,-0.07,1841,2019-04-03 15:52:47:898
0.61,0.51,10.32,0.22,0.22,0.43,0.0,0.0,-0.07,1846,2019-04-03 15:52:47:903
-0.09,1.49,11.19,0.22,0.22,0.43,-0.02,-0.01,-0.07,1850,2019-04-03 15:52:47:907
-0.09,1.49,11.19,-0.45,1.09,1.2,-0.02,-0.01,-0.07,1855,2019-04-03 15:52:47:912
-0.09,1.49,11.19,-0.45,1.09,1.2,-0.02,-0.01,-0.07,1860,2019-04-03 15:52:47:917
-0.09,1.49,11.19,-0.45,1.09,1.2,-0.02,-0.01,-0.07,1867,2019-04-03 15:52:47:924
-0.94,0.56,9.59,-1.34,0.11,-0.41,0.01,-0.08,-0.09,1870,2019-04-03 15:52:47:927
-0.94,0.56,9.59,-1.34,0.11,-0.41,0.01,-0.08,-0.09,1875,2019-04-03 15:52:47:932
-0.94,0.56,9.59,-1.34,0.11,-0.41,0.01,-0.08,-0.09,1880,2019-04-03 15:52:47:937
-0.94,0.56,9.59,-1.34,0.11,-0.41,0.01,-0.08,-0.09,1885,2019-04-03 15:52:47:942
-0.94,0.56,9.59,-1.34,0.11,-0.41,0.01,-0.08,-0.09,1890,2019-04-03 15:52:47:947
-0.94,0.56,9.59,-1.34,0.11,-0.41,0.01,-0.05,-0.08,1897,2019-04-03 15:52:47:954
0.17,0.96,9.29,-1.34,0.11,-0.41,0.01,-0.05,-0.08,1901,2019-04-03 15:52:47:958
0.17,0.96,9.29,-0.28,0.45,-0.77,0.01,-0.05,-0.08,1906,2019-04-03 15:52:47:963
0.17,0.96,9.29,-0.28,0.45,-0.77,-0.03,0.04,-0.04,1910,2019-04-03 15:52:47:967
0.17,0.96,9.29,-0.28,0.45,-0.77,-0.03,0.04,-0.04,1915,2019-04-03 15:52:47:972
0.17,0.96,9.29,-0.28,0.45,-0.77,-0.03,0.04,-0.04,1920,2019-04-03 15:52:47:977
0.17,0.96,9.29,-0.28,0.45,-0.77,-0.03,0.04,-0.04,1926,2019-04-03 15:52:47:983
1.17,0.7,10.07,0.63,0.06,-0.01,-0.02,0.04,-0.02,1933,2019-04-03 15:52:47:990
1.17,0.7,10.07,0.63,0.06,-0.01,-0.02,0.04,-0.02,1935,2019-04-03 15:52:47:992
1.17,0.7,10.07,0.63,0.06,-0.01,-0.02,0.04,-0.02,1940,2019-04-03 15:52:47:997
1.17,0.7,10.07,0.63,0.06,-0.01,-0.02,0.04,-0.02,1945,2019-04-03 15:52:48:002
0.24,0.93,9.44,-0.31,0.21,-0.61,0.03,0.02,0.0,1951,2019-04-03 15:52:48:008
0.24,0.93,9.44,-0.31,0.21,-0.61,0.03,0.02,0.0,1955,2019-04-03 15:52:48:012
0.24,0.93,9.44,-0.31,0.21,-0.61,0.03,0.02,0.0,1960,2019-04-03 15:52:48:017
0.24,0.93,9.44,-0.31,0.21,-0.61,0.03,0.02,0.0,1966,2019-04-03 15:52:48:023
1.46,1.08,11.44,0.84,0.32,1.31,-0.03,0.02,0.03,1976,2019-04-03 15:52:48:033
1.46,1.08,11.44,0.84,0.32,1.31,-0.03,0.02,0.03,1977,2019-04-03 15:52:48:034
1.46,1.08,11.44,0.84,0.32,1.31,-0.03,0.02,0.03,1980,2019-04-03 15:52:48:037
1.46,1.08,11.44,0.84,0.32,1.31,-0.03,0.02,0.03,1985,2019-04-03 15:52:48:042
1.46,1.08,11.44,0.84,0.32,1.31,-0.03,0.02,0.03,1993,2019-04-03 15:52:48:050
-0.62,-1.28,9.73,-1.17,-1.93,-0.35,-0.03,0.02,0.05,1995,2019-04-03 15:52:48:052
-0.62,-1.28,9.73,-1.17,-1.93,-0.35,-0.03,0.02,0.05,2001,2019-04-03 15:52:48:058
-2.02,-0.46,9.09,-2.51,-1.03,-1.01,0.06,-0.12,0.02,2021,2019-04-03 15:52:48:078
-2.02,-0.46,9.09,-2.51,-1.03,-1.01,0.06,-0.12,0.02,2022,2019-04-03 15:52:48:079
-2.02,-0.46,9.09,-2.51,-1.03,-1.01,0.06,-0.12,0.02,2022,2019-04-03 15:52:48:079
-2.02,-0.46,9.09,-2.51,-1.03,-1.01,0.06,-0.12,0.02,2022,2019-04-03 15:52:48:079
-2.02,-0.46,9.09,-2.51,-1.03,-1.01,0.06,-0.12,0.02,2030,2019-04-03 15:52:48:087
-0.09,0.09,10.17,-2.51,-1.03,-1.01,0.06,-0.12,0.02,2030,2019-04-03 15:52:48:087
-0.09,0.09,10.17,-0.56,-0.37,-0.01,-0.03,-0.02,0.01,2036,2019-04-03 15:52:48:093
-0.09,0.09,10.17,-0.56,-0.37,-0.01,-0.03,-0.02,0.01,2041,2019-04-03 15:52:48:098
-0.09,0.09,10.17,-0.56,-0.37,-0.01,-0.03,-0.02,0.01,2046,2019-04-03 15:52:48:103
1.23,-1.24,10.76,-0.82,-1.07,0.1,0.0,0.07,0.0,2059,2019-04-03 15:52:48:116
1.23,-1.24,10.76,-0.82,-1.07,0.1,0.0,0.07,0.0,2062,2019-04-03 15:52:48:119
-0.15,-0.14,9.22,-0.45,-0.37,-0.86,-0.01,-0.06,-0.01,2063,2019-04-03 15:52:48:120
-0.15,-0.14,9.22,-0.45,-0.37,-0.86,-0.01,-0.06,-0.01,2065,2019-04-03 15:52:48:122
-0.15,-0.14,9.22,-0.45,-0.37,-0.86,-0.01,-0.06,-0.01,2071,2019-04-03 15:52:48:128
-0.15,-0.14,9.22,-0.45,-0.37,-0.86,-0.01,-0.06,-0.01,2075,2019-04-03 15:52:48:132
1.15,-1.0,10.3,0.8,-1.07,0.25,0.0,0.0,0.0,2081,2019-04-03 15:52:48:138
1.15,-1.0,10.3,0.8,-1.07,0.25,0.0,0.0,0.0,2085,2019-04-03 15:52:48:142
1.15,-1.0,10.3,0.8,-1.07,0.25,0.0,0.0,0.0,2090,2019-04-03 15:52:48:147
1.15,-1.0,10.3,0.8,-1.07,0.25,0.0,0.0,0.0,2095,2019-04-03 15:52:48:152
1.42,-0.09,10.09,1.06,-0.04,0.05,0.04,0.06,0.0,2100,2019-04-03 15:52:48:157
1.42,-0.09,10.09,1.06,-0.04,0.05,0.04,0.06,0.0,2105,2019-04-03 15:52:48:162
1.42,-0.09,10.09,1.06,-0.04,0.05,0.04,0.06,0.0,2109,2019-04-03 15:52:48:166
1.42,-0.09,10.09,1.06,-0.04,0.05,0.04,0.06,0.0,2116,2019-04-03 15:52:48:173
1.42,-0.09,10.09,1.06,-0.04,0.05,0.04,0.06,0.0,2120,2019-04-03 15:52:48:177
1.42,-0.09,10.09,1.06,-0.04,0.05,0.04,0.06,0.0,2125,2019-04-03 15:52:48:182
-0.01,1.06,9.95,-0.31,1.18,-0.08,0.0,0.0,-0.04,2130,2019-04-03 15:52:48:187
-0.01,1.06,9.95,-0.31,1.18,-0.08,0.0,0.0,-0.04,2136,2019-04-03 15:52:48:193
-0.01,1.06,9.95,-0.31,1.18,-0.08,0.07,-0.02,-0.11,2139,2019-04-03 15:52:48:196
-0.48,0.88,10.5,-0.31,1.55,0.76,0.07,-0.02,-0.11,2145,2019-04-03 15:52:48:202
-0.48,0.88,10.5,-0.31,1.55,0.76,0.07,-0.02,-0.11,2150,2019-04-03 15:52:48:207
-0.48,0.88,10.5,-0.31,1.55,0.76,0.07,-0.02,-0.11,2155,2019-04-03 15:52:48:212
5.03,-0.14,-4.3,-0.31,1.55,0.76,0.07,-0.02,-0.11,2160,2019-04-03 15:52:48:217
5.03,-0.14,-4.3,4.66,-0.04,-13.76,-0.03,0.0,-0.17,2166,2019-04-03 15:52:48:223
5.03,-0.14,-4.3,4.66,-0.04,-13.76,-0.03,0.0,-0.17,2170,2019-04-03 15:52:48:227
5.03,-0.14,-4.3,4.66,-0.04,-13.76,-0.03,0.0,-0.17,2175,2019-04-03 15:52:48:232
5.03,-0.14,-4.3,4.66,-0.04,-13.76,-0.03,0.0,-0.17,2180,2019-04-03 15:52:48:237
5.03,-0.14,-4.3,4.66,-0.04,-13.76,-0.03,0.0,-0.17,2185,2019-04-03 15:52:48:242
1.78,3.49,10.22,4.66,-0.04,-13.76,-0.03,0.0,-0.17,2191,2019-04-03 15:52:48:248
1.78,3.49,10.22,1.45,3.26,0.48,-0.01,-0.04,-0.17,2198,2019-04-03 15:52:48:255
1.78,3.49,10.22,1.45,3.26,0.48,-0.01,-0.04,-0.17,2200,2019-04-03 15:52:48:257
-1.77,0.53,10.94,1.45,3.26,0.48,-0.01,-0.04,-0.17,2205,2019-04-03 15:52:48:262
-1.77,0.53,10.94,1.45,3.26,0.48,-0.01,-0.04,-0.17,2210,2019-04-03 15:52:48:267
-1.77,0.53,10.94,1.45,3.26,0.48,-0.01,-0.04,-0.17,2215,2019-04-03 15:52:48:272
2.13,4.08,8.8,1.75,2.9,-1.03,-0.18,0.11,0.0,2220,2019-04-03 15:52:48:277
2.13,4.08,8.8,1.75,2.9,-1.03,-0.18,0.11,0.0,2225,2019-04-03 15:52:48:282
2.13,4.08,8.8,1.75,2.9,-1.03,-0.18,0.11,0.0,2231,2019-04-03 15:52:48:288
2.13,4.08,8.8,1.75,2.9,-1.03,-0.18,0.11,0.0,2236,2019-04-03 15:52:48:293
2.13,4.08,8.8,1.75,2.9,-1.03,-0.18,0.11,0.0,2240,2019-04-03 15:52:48:297
2.13,4.08,8.8,1.75,2.9,-1.03,-0.18,0.11,0.0,2246,2019-04-03 15:52:48:303
0.56,0.39,10.68,0.1,-0.91,0.9,-0.06,0.06,-0.03,2252,2019-04-03 15:52:48:309
0.56,0.39,10.68,0.1,-0.91,0.9,-0.06,0.06,-0.03,2254,2019-04-03 15:52:48:311
0.56,0.39,10.68,0.1,-0.91,0.9,0.18,0.02,-0.05,2263,2019-04-03 15:52:48:320
0.56,0.39,10.68,0.07,-1.73,2.26,0.18,0.02,-0.05,2265,2019-04-03 15:52:48:322
0.56,0.39,10.68,0.07,-1.73,2.26,0.18,0.02,-0.05,2270,2019-04-03 15:52:48:327
0.56,0.39,10.68,0.07,-1.73,2.26,0.18,0.02,-0.05,2282,2019-04-03 15:52:48:339
0.56,0.39,10.68,0.07,-1.73,2.26,0.18,0.02,-0.05,2283,2019-04-03 15:52:48:340
0.56,0.39,10.68,0.07,-1.73,2.26,0.18,0.02,-0.05,2284,2019-04-03 15:52:48:341
0.02,2.17,9.1,-0.28,0.43,-0.58,-0.08,-0.14,-0.15,2290,2019-04-03 15:52:48:347
0.02,2.17,9.1,-0.28,0.43,-0.58,-0.08,-0.14,-0.15,2295,2019-04-03 15:52:48:352
0.02,2.17,9.1,-0.28,0.43,-0.58,-0.08,-0.14,-0.15,2300,2019-04-03 15:52:48:357
0.02,2.17,9.1,-0.28,0.43,-0.58,-0.08,-0.14,-0.15,2305,2019-04-03 15:52:48:362
2.1,-0.8,10.27,-0.28,0.43,-0.58,0.01,-0.1,-0.2,2310,2019-04-03 15:52:48:367
2.1,-0.8,10.27,1.62,-2.59,0.52,0.01,-0.1,-0.2,2317,2019-04-03 15:52:48:374
2.1,-0.8,10.27,1.62,-2.59,0.52,0.01,-0.1,-0.2,2321,2019-04-03 15:52:48:378
2.1,-0.8,10.27,1.62,-2.59,0.52,0.01,-0.1,-0.2,2325,2019-04-03 15:52:48:382
0.05,0.93,9.44,-0.53,-0.96,-0.29,0.12,-0.05,-0.16,2330,2019-04-03 15:52:48:387
0.05,0.93,9.44,-0.53,-0.96,-0.29,0.12,-0.05,-0.16,2335,2019-04-03 15:52:48:392
0.05,0.93,9.44,-0.53,-0.96,-0.29,0.12,-0.05,-0.16,2340,2019-04-03 15:52:48:397
0.05,0.93,9.44,-0.53,-0.96,-0.29,0.12,-0.05,-0.16,2345,2019-04-03 15:52:48:402
-0.85,1.19,9.17,-1.49,-0.57,-0.5,-0.05,-0.06,-0.12,2350,2019-04-03 15:52:48:407
-0.85,1.19,9.17,-1.49,-0.57,-0.5,-0.05,-0.06,-0.12,2356,2019-04-03 15:52:48:413
-0.85,1.19,9.17,-1.49,-0.57,-0.5,-0.05,-0.06,-0.12,2360,2019-04-03 15:52:48:417
-0.85,1.19,9.17,-1.49,-0.57,-0.5,-0.05,-0.06,-0.12,2365,2019-04-03 15:52:48:422
0.67,0.49,10.49,0.23,-1.34,0.12,0.04,0.01,-0.11,2370,2019-04-03 15:52:48:427
0.67,0.49,10.49,0.23,-1.34,0.12,0.04,0.01,-0.11,2375,2019-04-03 15:52:48:432
0.67,0.49,10.49,0.23,-1.34,0.12,0.04,0.01,-0.11,2382,2019-04-03 15:52:48:439
0.67,0.49,10.49,0.23,-1.34,0.12,0.04,0.01,-0.11,2385,2019-04-03 15:52:48:442
1.36,2.55,9.92,0.86,0.77,-0.08,0.03,0.02,-0.08,2390,2019-04-03 15:52:48:447
1.36,2.55,9.92,0.86,0.77,-0.08,0.03,0.02,-0.08,2395,2019-04-03 15:52:48:452
1.36,2.55,9.92,0.86,0.77,-0.08,0.03,0.02,-0.08,2399,2019-04-03 15:52:48:456
1.36,2.55,9.92,0.86,0.77,-0.08,0.03,0.02,-0.08,2405,2019-04-03 15:52:48:462
0.54,2.97,9.93,0.04,1.54,0.14,-0.06,0.0,-0.06,2410,2019-04-03 15:52:48:467
0.54,2.97,9.93,0.04,1.54,0.14,-0.06,0.0,-0.06,2415,2019-04-03 15:52:48:472
0.54,2.97,9.93,0.04,1.54,0.14,-0.06,0.0,-0.06,2420,2019-04-03 15:52:48:477
0.75,1.92,10.11,0.23,0.48,0.33,0.02,-0.01,-0.04,2426,2019-04-03 15:52:48:483
0.75,1.92,10.11,0.23,0.48,0.33,0.02,-0.01,-0.04,2430,2019-04-03 15:52:48:487
0.75,1.92,10.11,0.23,0.48,0.33,0.02,-0.01,-0.04,2436,2019-04-03 15:52:48:493
-0.02,3.15,9.72,-0.48,1.51,-0.05,0.01,-0.01,-0.03,2443,2019-04-03 15:52:48:500
-0.02,3.15,9.72,-0.48,1.51,-0.05,0.01,-0.01,-0.03,2444,2019-04-03 15:52:48:501
-0.02,3.15,9.72,-0.48,1.51,-0.05,0.01,-0.01,-0.03,2450,2019-04-03 15:52:48:507
-0.02,3.15,9.72,-0.48,1.51,-0.05,0.01,-0.01,-0.03,2455,2019-04-03 15:52:48:512
-0.02,3.15,9.72,-0.48,1.51,-0.05,0.01,-0.01,-0.03,2460,2019-04-03 15:52:48:517
0.12,2.86,9.99,-0.46,1.18,0.04,-0.04,-0.04,-0.04,2465,2019-04-03 15:52:48:522
0.12,2.86,9.99,-0.46,1.18,0.04,-0.04,-0.04,-0.04,2469,2019-04-03 15:52:48:526
0.12,2.86,9.99,-0.46,1.18,0.04,-0.04,-0.04,-0.04,2475,2019-04-03 15:52:48:532
0.65,1.72,10.77,0.09,-0.09,0.87,0.05,-0.02,-0.06,2481,2019-04-03 15:52:48:538
0.65,1.72,10.77,0.09,-0.09,0.87,0.05,-0.02,-0.06,2485,2019-04-03 15:52:48:542
0.65,1.72,10.77,0.09,-0.09,0.87,0.05,-0.02,-0.06,2490,2019-04-03 15:52:48:547
0.65,1.72,10.77,0.09,-0.09,0.87,0.05,-0.02,-0.06,2496,2019-04-03 15:52:48:553
-0.19,2.64,8.59,-0.6,0.59,-1.17,0.0,-0.07,-0.07,2501,2019-04-03 15:52:48:558
-0.19,2.64,8.59,-0.6,0.59,-1.17,0.0,-0.07,-0.07,2506,2019-04-03 15:52:48:563
-0.19,2.64,8.59,-0.6,0.59,-1.17,0.0,-0.07,-0.07,2510,2019-04-03 15:52:48:567
-0.19,2.64,8.59,-0.6,0.59,-1.17,0.0,-0.07,-0.07,2515,2019-04-03 15:52:48:572
-0.38,3.0,10.06,-0.72,0.76,0.24,0.03,-0.09,-0.08,2520,2019-04-03 15:52:48:577
-0.38,3.0,10.06,-0.72,0.76,0.24,0.03,-0.09,-0.08,2525,2019-04-03 15:52:48:582
-0.38,3.0,10.06,-0.72,0.76,0.24,0.03,-0.09,-0.08,2530,2019-04-03 15:52:48:587
-0.38,3.0,10.06,-0.72,0.76,0.24,0.03,-0.09,-0.08,2535,2019-04-03 15:52:48:592
1.55,3.8,9.15,1.16,1.19,-0.55,0.12,-0.01,-0.08,2540,2019-04-03 15:52:48:597
1.55,3.8,9.15,1.16,1.19,-0.55,0.12,-0.01,-0.08,2545,2019-04-03 15:52:48:602
1.55,3.8,9.15,1.16,1.19,-0.55,0.12,-0.01,-0.08,2550,2019-04-03 15:52:48:607
1.55,3.8,9.15,1.16,1.19,-0.55,0.12,-0.01,-0.08,2555,2019-04-03 15:52:48:612
1.55,3.8,9.15,1.16,1.19,-0.55,0.12,-0.01,-0.08,2559,2019-04-03 15:52:48:616
0.79,4.44,11.47,0.35,1.52,1.72,0.08,-0.01,-0.06,2566,2019-04-03 15:52:48:623
0.79,4.44,11.47,0.35,1.52,1.72,0.08,-0.01,-0.06,2571,2019-04-03 15:52:48:628
0.79,4.44,11.47,0.35,1.52,1.72,0.08,-0.01,-0.06,2575,2019-04-03 15:52:48:632
0.79,4.44,11.47,0.35,1.52,1.72,0.08,-0.01,-0.06,2580,2019-04-03 15:52:48:637
0.71,4.61,10.13,0.3,1.46,0.45,0.21,0.0,-0.03,2587,2019-04-03 15:52:48:644
0.71,4.61,10.13,0.3,1.46,0.45,0.21,0.0,-0.03,2589,2019-04-03 15:52:48:646
0.71,4.61,10.13,0.3,1.46,0.45,0.21,0.0,-0.03,2595,2019-04-03 15:52:48:652
0.71,4.61,10.13,0.3,1.46,0.45,0.21,0.0,-0.03,2600,2019-04-03 15:52:48:657
0.33,3.63,8.65,-0.1,0.29,-1.01,0.23,-0.07,-0.01,2606,2019-04-03 15:52:48:663
0.33,3.63,8.65,-0.1,0.29,-1.01,0.23,-0.07,-0.01,2610,2019-04-03 15:52:48:667
0.33,3.63,8.65,-0.1,0.29,-1.01,0.23,-0.07,-0.01,2615,2019-04-03 15:52:48:672
0.33,3.63,8.65,-0.1,0.29,-1.01,0.23,-0.07,-0.01,2619,2019-04-03 15:52:48:676
1.05,2.84,8.83,0.53,-0.65,-0.77,0.31,-0.02,0.04,2625,2019-04-03 15:52:48:682
1.05,2.84,8.83,0.53,-0.65,-0.77,0.31,-0.02,0.04,2631,2019-04-03 15:52:48:688
1.05,2.84,8.83,0.53,-0.65,-0.77,0.31,-0.02,0.04,2635,2019-04-03 15:52:48:692
1.05,2.84,8.83,0.53,-0.65,-0.77,0.31,-0.02,0.04,2640,2019-04-03 15:52:48:697
0.49,3.15,10.37,-0.08,-0.43,0.74,0.3,0.01,0.08,2646,2019-04-03 15:52:48:703
0.49,3.15,10.37,-0.08,-0.43,0.74,0.3,0.01,0.08,2649,2019-04-03 15:52:48:706
0.49,3.15,10.37,-0.08,-0.43,0.74,0.3,0.01,0.08,2655,2019-04-03 15:52:48:712
0.49,3.15,10.37,-0.08,-0.43,0.74,0.3,0.01,0.08,2661,2019-04-03 15:52:48:718
0.08,2.18,8.26,-0.49,-1.35,-1.24,0.22,0.0,0.12,2666,2019-04-03 15:52:48:723
0.08,2.18,8.26,-0.49,-1.35,-1.24,0.22,0.0,0.12,2670,2019-04-03 15:52:48:727
0.08,2.18,8.26,-0.49,-1.35,-1.24,0.22,0.0,0.12,2675,2019-04-03 15:52:48:732
0.08,2.18,8.26,-0.49,-1.35,-1.24,0.22,0.0,0.12,2680,2019-04-03 15:52:48:737
-1.2,2.49,11.53,-1.76,-1.12,1.96,0.29,-0.01,0.14,2687,2019-04-03 15:52:48:744
-1.2,2.49,11.53,-1.76,-1.12,1.96,0.29,-0.01,0.14,2690,2019-04-03 15:52:48:747
-1.2,2.49,11.53,-1.76,-1.12,1.96,0.29,-0.01,0.14,2695,2019-04-03 15:52:48:752
-1.2,2.49,11.53,-1.76,-1.12,1.96,0.29,-0.01,0.14,2700,2019-04-03 15:52:48:757
-0.15,2.8,10.75,-0.73,-0.84,1.0,0.2,0.0,0.17,2705,2019-04-03 15:52:48:762
-0.15,2.8,10.75,-0.73,-0.84,1.0,0.2,0.0,0.17,2710,2019-04-03 15:52:48:767
-0.15,2.8,10.75,-0.73,-0.84,1.0,0.2,0.0,0.17,2715,2019-04-03 15:52:48:772
-0.15,2.8,10.75,-0.73,-0.84,1.0,0.2,0.0,0.17,2720,2019-04-03 15:52:48:777
2.46,1.86,11.07,1.83,-1.66,1.34,0.17,0.07,0.2,2728,2019-04-03 15:52:48:785
2.46,1.86,11.07,1.83,-1.66,1.34,0.17,0.07,0.2,2730,2019-04-03 15:52:48:787
2.46,1.86,11.07,1.83,-1.66,1.34,0.17,0.07,0.2,2735,2019-04-03 15:52:48:792
1.17,3.03,10.03,0.49,-0.38,0.26,0.11,-0.01,0.21,2744,2019-04-03 15:52:48:801
1.17,3.03,10.03,0.49,-0.38,0.26,0.11,-0.01,0.21,2748,2019-04-03 15:52:48:805
1.17,3.03,10.03,0.49,-0.38,0.26,0.11,-0.01,0.21,2749,2019-04-03 15:52:48:806
1.17,3.03,10.03,0.49,-0.38,0.26,0.11,-0.01,0.21,2755,2019-04-03 15:52:48:812
0.34,-0.64,9.83,-0.23,-3.6,0.1,-0.03,0.02,0.25,2761,2019-04-03 15:52:48:818
0.34,-0.64,9.83,-0.23,-3.6,0.1,-0.03,0.02,0.25,2766,2019-04-03 15:52:48:823
0.34,-0.64,9.83,-0.23,-3.6,0.1,-0.03,0.02,0.25,2770,2019-04-03 15:52:48:827
0.34,-0.64,9.83,-0.23,-3.6,0.1,-0.03,0.02,0.25,2775,2019-04-03 15:52:48:832
0.34,-0.64,9.83,-0.23,-3.6,0.1,-0.03,0.02,0.25,2780,2019-04-03 15:52:48:837
0.71,-1.32,9.07,-0.01,-3.72,-0.73,0.04,-0.07,0.21,2786,2019-04-03 15:52:48:843
0.71,-1.32,9.07,-0.01,-3.72,-0.73,0.04,-0.07,0.21,2791,2019-04-03 15:52:48:848
0.71,-1.32,9.07,-0.01,-3.72,-0.73,0.04,-0.07,0.21,2795,2019-04-03 15:52:48:852
0.3,-0.14,14.74,-0.41,-1.92,4.74,-0.19,0.05,0.26,2805,2019-04-03 15:52:48:862
0.3,-0.14,14.74,-0.41,-1.92,4.74,-0.19,0.05,0.26,2806,2019-04-03 15:52:48:863
0.3,-0.14,14.74,-0.41,-1.92,4.74,-0.19,0.05,0.26,2818,2019-04-03 15:52:48:875
0.3,-0.14,14.74,-0.41,-1.92,4.74,-0.19,0.05,0.26,2819,2019-04-03 15:52:48:876
1.2,-4.97,10.77,-0.41,-1.92,4.74,-0.19,0.05,0.26,2820,2019-04-03 15:52:48:877
1.2,-4.97,10.77,-0.41,-1.92,4.74,-0.19,0.05,0.26,2825,2019-04-03 15:52:48:882
1.2,-4.97,10.77,0.5,-5.82,0.57,-0.42,0.06,0.27,2831,2019-04-03 15:52:48:888
1.2,-4.97,10.77,0.5,-5.82,0.57,-0.42,0.06,0.27,2835,2019-04-03 15:52:48:892
0.28,-8.61,12.51,0.5,-5.82,0.57,-0.42,0.06,0.27,2840,2019-04-03 15:52:48:897
0.28,-8.61,12.51,-0.41,-8.34,2.08,-0.51,0.06,0.31,2847,2019-04-03 15:52:48:904
0.28,-8.61,12.51,-0.41,-8.34,2.08,-0.51,0.06,0.31,2851,2019-04-03 15:52:48:908
0.28,-8.61,12.51,-0.41,-8.34,2.08,-0.51,0.06,0.31,2855,2019-04-03 15:52:48:912
-1.18,-4.75,12.83,-0.41,-8.34,2.08,-0.99,0.19,0.32,2860,2019-04-03 15:52:48:917
-1.18,-4.75,12.83,-1.65,-3.51,2.05,-0.99,0.19,0.32,2865,2019-04-03 15:52:48:922
-1.18,-4.75,12.83,-1.65,-3.51,2.05,-0.99,0.19,0.32,2870,2019-04-03 15:52:48:927
-1.18,-4.75,12.83,-1.65,-3.51,2.05,-0.99,0.19,0.32,2875,2019-04-03 15:52:48:932
18.69,9.34,-1.35,17.59,9.61,-10.03,-0.78,0.54,0.19,2883,2019-04-03 15:52:48:940
18.69,9.34,-1.35,17.59,9.61,-10.03,-0.78,0.54,0.19,2887,2019-04-03 15:52:48:944
18.69,9.34,-1.35,17.59,9.61,-10.03,-0.78,0.54,0.19,2891,2019-04-03 15:52:48:948
18.69,9.34,-1.35,17.59,9.61,-10.03,-0.78,0.54,0.19,2895,2019-04-03 15:52:48:952
2.98,13.2,12.28,1.92,12.87,3.99,-1.62,0.43,0.14,2900,2019-04-03 15:52:48:957
2.98,13.2,12.28,1.92,12.87,3.99,-1.62,0.43,0.14,2905,2019-04-03 15:52:48:962
2.98,13.2,12.28,1.92,12.87,3.99,-1.62,0.43,0.14,2910,2019-04-03 15:52:48:967
2.98,13.2,12.28,1.92,12.87,3.99,-1.62,0.43,0.14,2915,2019-04-03 15:52:48:972
-6.85,-7.7,25.08,-7.09,-8.74,15.89,0.97,0.13,0.11,2920,2019-04-03 15:52:48:977
-6.85,-7.7,25.08,-7.09,-8.74,15.89,0.97,0.13,0.11,2927,2019-04-03 15:52:48:984
-6.85,-7.7,25.08,-7.09,-8.74,15.89,0.97,0.13,0.11,2931,2019-04-03 15:52:48:988
-6.85,-7.7,25.08,-7.09,-8.74,15.89,0.97,0.13,0.11,2935,2019-04-03 15:52:48:992
-19.0,18.11,6.03,-18.76,15.94,-3.78,0.0,-0.94,-0.42,2940,2019-04-03 15:52:48:997
-19.0,18.11,6.03,-18.76,15.94,-3.78,0.0,-0.94,-0.42,2945,2019-04-03 15:52:49:002
-19.0,18.11,6.03,-18.76,15.94,-3.78,0.0,-0.94,-0.42,2950,2019-04-03 15:52:49:007
-19.0,18.11,6.03,-18.76,15.94,-3.78,0.0,-0.94,-0.42,2955,2019-04-03 15:52:49:012
10.08,0.6,15.36,9.65,-1.6,4.93,-0.95,-0.36,-0.35,2960,2019-04-03 15:52:49:017
10.08,0.6,15.36,9.65,-1.6,4.93,-0.95,-0.36,-0.35,2965,2019-04-03 15:52:49:022
10.08,0.6,15.36,9.65,-1.6,4.93,-0.95,-0.36,-0.35,2971,2019-04-03 15:52:49:028
10.08,0.6,15.36,9.65,-1.6,4.93,-0.95,-0.36,-0.35,2975,2019-04-03 15:52:49:032
10.08,0.6,15.36,9.65,-1.6,4.93,-0.95,-0.36,-0.35,2980,2019-04-03 15:52:49:037
10.08,0.6,15.36,9.65,-1.6,4.93,-0.95,-0.36,-0.35,2987,2019-04-03 15:52:49:044
10.08,0.6,15.36,9.65,-1.6,4.93,-0.95,-0.36,-0.35,2992,2019-04-03 15:52:49:049
2.5,-1.4,16.78,2.19,-4.38,6.3,0.75,0.25,-0.28,3000,2019-04-03 15:52:49:057
2.5,-1.4,16.78,2.19,-4.38,6.3,0.75,0.25,-0.28,3001,2019-04-03 15:52:49:058
2.5,-1.4,16.78,2.19,-4.38,6.3,0.75,0.25,-0.28,3005,2019-04-03 15:52:49:062
2.5,-1.4,16.78,2.19,-4.38,6.3,0.75,0.25,-0.28,3013,2019-04-03 15:52:49:070
-0.95,5.69,6.71,-1.38,2.39,-3.63,-0.47,-0.3,-0.16,3018,2019-04-03 15:52:49:075
-0.95,5.69,6.71,-1.38,2.39,-3.63,-0.47,-0.3,-0.16,3022,2019-04-03 15:52:49:079
-0.95,5.69,6.71,-1.38,2.39,-3.63,-0.47,-0.3,-0.16,3026,2019-04-03 15:52:49:083
-0.95,5.69,6.71,-1.38,2.39,-3.63,-0.47,-0.3,-0.16,3030,2019-04-03 15:52:49:087
-0.95,5.69,6.71,-1.38,2.39,-3.63,-0.47,-0.3,-0.16,3035,2019-04-03 15:52:49:092
6.68,-2.85,16.82,5.92,-7.5,7.39,0.49,0.45,0.27,3040,2019-04-03 15:52:49:097
6.68,-2.85,16.82,5.92,-7.5,7.39,0.49,0.45,0.27,3045,2019-04-03 15:52:49:102
6.68,-2.85,16.82,5.92,-7.5,7.39,0.49,0.45,0.27,3052,2019-04-03 15:52:49:109
6.68,-2.85,16.82,5.92,-7.5,7.39,0.49,0.45,0.27,3054,2019-04-03 15:52:49:111
1.7,5.02,8.46,0.89,-0.57,-0.3,-0.13,0.44,0.35,3060,2019-04-03 15:52:49:117
1.7,5.02,8.46,0.89,-0.57,-0.3,-0.13,0.44,0.35,3065,2019-04-03 15:52:49:122
1.7,5.02,8.46,1.2,-0.14,-1.81,-0.07,-0.26,0.33,3072,2019-04-03 15:52:49:129
1.7,5.02,8.46,1.2,-0.14,-1.81,-0.07,-0.26,0.33,3076,2019-04-03 15:52:49:133
1.7,5.02,8.46,1.2,-0.14,-1.81,-0.07,-0.26,0.33,3080,2019-04-03 15:52:49:137
1.7,5.02,8.46,1.2,-0.14,-1.81,-0.07,-0.26,0.33,3085,2019-04-03 15:52:49:142
1.7,5.02,8.46,1.2,-0.14,-1.81,-0.07,-0.26,0.33,3090,2019-04-03 15:52:49:147
2.4,-0.95,6.71,2.01,-4.15,-4.06,0.33,0.04,0.48,3095,2019-04-03 15:52:49:152
2.4,-0.95,6.71,2.01,-4.15,-4.06,0.33,0.04,0.48,3100,2019-04-03 15:52:49:157
2.4,-0.95,6.71,2.01,-4.15,-4.06,0.33,0.04,0.48,3106,2019-04-03 15:52:49:163
2.4,1.28,6.79,0.03,-1.09,-2.82,-0.28,0.24,0.46,3110,2019-04-03 15:52:49:167
1.13,1.28,6.79,0.03,-1.09,-2.82,-0.28,0.24,0.46,3115,2019-04-03 15:52:49:172
1.13,1.28,6.79,0.03,-1.09,-2.82,-0.28,0.24,0.46,3120,2019-04-03 15:52:49:177
1.13,1.28,6.79,0.03,-1.09,-2.82,-0.28,0.24,0.46,3127,2019-04-03 15:52:49:184
-9.07,-5.53,11.55,-10.24,-6.27,2.38,0.12,0.0,0.38,3132,2019-04-03 15:52:49:189
-9.07,-5.53,11.55,-10.24,-6.27,2.38,0.12,0.0,0.38,3135,2019-04-03 15:52:49:192
-9.07,-5.53,11.55,-10.24,-6.27,2.38,0.12,0.0,0.38,3145,2019-04-03 15:52:49:202
-9.07,-5.53,11.55,-10.24,-6.27,2.38,0.12,0.0,0.38,3148,2019-04-03 15:52:49:205
6.82,-4.33,17.26,5.99,-4.84,8.43,-0.32,0.01,0.26,3152,2019-04-03 15:52:49:209
6.82,-4.33,17.26,5.99,-4.84,8.43,-0.32,0.01,0.26,3155,2019-04-03 15:52:49:212
6.82,-4.33,17.26,5.99,-4.84,8.43,-0.32,0.01,0.26,3162,2019-04-03 15:52:49:219
0.05,3.32,17.13,-0.66,3.26,8.43,-0.33,0.32,0.36,3178,2019-04-03 15:52:49:235
0.05,3.32,17.13,-0.66,3.26,8.43,-0.33,0.32,0.36,3178,2019-04-03 15:52:49:235
0.05,3.32,17.13,-0.66,3.26,8.43,-0.33,0.32,0.36,3179,2019-04-03 15:52:49:236
0.05,3.32,17.13,-0.66,3.26,8.43,-0.33,0.32,0.36,3180,2019-04-03 15:52:49:237
0.05,3.32,17.13,-0.66,3.26,8.43,-0.33,0.32,0.36,3186,2019-04-03 15:52:49:243
-8.88,-0.48,11.17,-9.03,-0.61,1.93,0.15,-0.33,0.14,3190,2019-04-03 15:52:49:247
-8.88,-0.48,11.17,-9.03,-0.61,1.93,0.15,-0.33,0.14,3195,2019-04-03 15:52:49:252
-8.88,-0.48,11.17,-9.03,-0.61,1.93,0.15,-0.33,0.14,3201,2019-04-03 15:52:49:258
-8.88,-0.48,11.17,-9.03,-0.61,1.93,0.15,-0.33,0.14,3205,2019-04-03 15:52:49:262
-8.88,-0.48,11.17,-9.03,-0.61,1.93,0.15,-0.33,0.14,3211,2019-04-03 15:52:49:268
-2.5,-1.52,5.94,-2.5,-1.68,-4.22,0.09,-0.53,0.04,3215,2019-04-03 15:52:49:272
-2.5,-1.52,5.94,-2.5,-1.68,-4.22,0.09,-0.53,0.04,3220,2019-04-03 15:52:49:277
-2.5,-1.52,5.94,-2.5,-1.68,-4.22,0.09,-0.53,0.04,3225,2019-04-03 15:52:49:282
-2.5,-1.52,5.94,-2.5,-1.68,-4.22,0.09,-0.53,0.04,3232,2019-04-03 15:52:49:289
1.39,-3.59,10.22,1.57,-3.4,0.54,-0.03,0.27,0.17,3236,2019-04-03 15:52:49:293
1.39,-3.59,10.22,1.57,-3.4,0.54,-0.03,0.27,0.17,3240,2019-04-03 15:52:49:297
1.39,-3.59,10.22,1.57,-3.4,0.54,-0.03,0.27,0.17,3245,2019-04-03 15:52:49:302
-2.21,1.12,8.33,1.57,-3.4,0.54,-0.03,0.27,0.17,3250,2019-04-03 15:52:49:307
-2.21,1.12,8.33,-2.0,1.6,-1.56,-0.09,0.02,0.07,3257,2019-04-03 15:52:49:314
-2.21,1.12,8.33,-2.0,1.6,-1.56,-0.09,0.02,0.07,3259,2019-04-03 15:52:49:316
-2.21,1.12,8.33,-2.0,1.6,-1.56,-0.09,0.02,0.07,3265,2019-04-03 15:52:49:322
-3.84,-0.44,6.94,-2.0,1.6,-1.56,-0.09,0.02,0.07,3271,2019-04-03 15:52:49:328
-3.84,-0.44,6.94,-2.0,1.6,-1.56,-0.09,0.02,0.07,3275,2019-04-03 15:52:49:332
-3.84,-0.44,6.94,-3.58,-0.23,-3.03,0.08,-0.24,0.03,3281,2019-04-03 15:52:49:338
-3.84,-0.44,6.94,-3.58,-0.23,-3.03,0.08,-0.24,0.03,3285,2019-04-03 15:52:49:342
-3.84,-0.44,6.94,-3.58,-0.23,-3.03,0.08,-0.24,0.03,3291,2019-04-03 15:52:49:348
4.1,6.17,16.51,4.08,6.15,5.62,0.1,-0.26,-0.03,3296,2019-04-03 15:52:49:353
4.1,6.17,16.51,4.08,6.15,5.62,0.1,-0.26,-0.03,3300,2019-04-03 15:52:49:357
4.1,6.17,16.51,4.08,6.15,5.62,0.1,-0.26,-0.03,3306,2019-04-03 15:52:49:363
1.98,1.98,17.93,4.08,6.15,5.62,0.1,-0.26,-0.03,3314,2019-04-03 15:52:49:371
1.98,1.98,17.93,4.08,6.15,5.62,0.1,-0.26,-0.03,3315,2019-04-03 15:52:49:372
1.98,1.98,17.93,2.32,1.5,6.28,0.39,0.46,0.15,3320,2019-04-03 15:52:49:377
1.98,1.98,17.93,2.32,1.5,6.28,0.39,0.46,0.15,3325,2019-04-03 15:52:49:382
-2.27,3.67,9.72,2.32,1.5,6.28,0.39,0.46,0.15,3330,2019-04-03 15:52:49:387
-2.27,3.67,9.72,-2.29,2.68,-1.84,0.23,0.21,0.11,3338,2019-04-03 15:52:49:395
-2.27,3.67,9.72,-2.29,2.68,-1.84,0.23,0.21,0.11,3340,2019-04-03 15:52:49:397
-2.27,3.67,9.72,-2.29,2.68,-1.84,0.23,0.21,0.11,3345,2019-04-03 15:52:49:402
-0.02,3.45,11.43,0.34,2.19,-0.04,-0.04,-0.11,0.11,3354,2019-04-03 15:52:49:411
-0.02,3.45,11.43,0.34,2.19,-0.04,-0.04,-0.11,0.11,3356,2019-04-03 15:52:49:413
-0.02,3.45,11.43,0.34,2.19,-0.04,-0.04,-0.11,0.11,3361,2019-04-03 15:52:49:418
-0.02,3.45,11.43,0.34,2.19,-0.04,-0.04,-0.11,0.11,3365,2019-04-03 15:52:49:422
2.28,2.36,17.72,2.4,0.65,5.85,0.44,0.01,0.17,3370,2019-04-03 15:52:49:427
2.28,2.36,17.72,2.4,0.65,5.85,0.44,0.01,0.17,3374,2019-04-03 15:52:49:431
2.28,2.36,17.72,2.4,0.65,5.85,0.44,0.01,0.17,3380,2019-04-03 15:52:49:437
2.28,2.36,17.72,2.4,0.65,5.85,0.44,0.01,0.17,3386,2019-04-03 15:52:49:443
-4.36,5.48,7.87,-4.65,3.78,-3.68,-0.13,-0.09,0.31,3389,2019-04-03 15:52:49:446
-4.36,5.48,7.87,-4.65,3.78,-3.68,-0.13,-0.09,0.31,3396,2019-04-03 15:52:49:453
-4.36,5.48,7.87,-4.65,3.78,-3.68,-0.13,-0.09,0.31,3401,2019-04-03 15:52:49:458
-4.36,5.48,7.87,-4.65,3.78,-3.68,-0.13,-0.09,0.31,3405,2019-04-03 15:52:49:462
-0.27,-8.51,18.98,-0.31,-9.77,6.86,0.14,-0.16,0.28,3410,2019-04-03 15:52:49:467
-0.27,-8.51,18.98,-0.31,-9.77,6.86,0.14,-0.16,0.28,3416,2019-04-03 15:52:49:473
-0.27,-8.51,18.98,-0.31,-9.77,6.86,0.14,-0.16,0.28,3420,2019-04-03 15:52:49:477
-0.27,-8.51,18.98,-0.31,-9.77,6.86,0.14,-0.16,0.28,3425,2019-04-03 15:52:49:482
5.07,4.41,12.33,4.86,2.7,0.18,0.45,0.23,0.35,3430,2019-04-03 15:52:49:487
5.07,4.41,12.33,4.86,2.7,0.18,0.45,0.23,0.35,3435,2019-04-03 15:52:49:492
5.07,4.41,12.33,4.86,2.7,0.18,0.45,0.23,0.35,3440,2019-04-03 15:52:49:497
5.07,4.41,12.33,4.86,2.7,0.18,0.45,0.23,0.35,3445,2019-04-03 15:52:49:502
3.06,6.86,11.94,2.81,4.79,-0.6,-0.16,0.23,0.31,3450,2019-04-03 15:52:49:507
3.06,6.86,11.94,2.81,4.79,-0.6,-0.16,0.23,0.31,3456,2019-04-03 15:52:49:513
3.06,6.86,11.94,2.81,4.79,-0.6,-0.16,0.23,0.31,3461,2019-04-03 15:52:49:518
3.06,6.86,11.94,2.81,4.79,-0.6,-0.16,0.23,0.31,3465,2019-04-03 15:52:49:522
-1.33,-2.77,6.15,-1.57,-4.72,-5.97,0.2,-0.14,0.21,3470,2019-04-03 15:52:49:527
-1.33,-2.77,6.15,-1.57,-4.72,-5.97,0.2,-0.14,0.21,3475,2019-04-03 15:52:49:532
-1.33,-2.77,6.15,-1.57,-4.72,-5.97,0.2,-0.14,0.21,3480,2019-04-03 15:52:49:537
-1.33,-2.77,6.15,-1.57,-4.72,-5.97,0.2,-0.14,0.21,3485,2019-04-03 15:52:49:542
-3.46,3.11,4.08,-3.29,1.26,-7.01,0.25,-0.23,0.21,3490,2019-04-03 15:52:49:547
-3.46,3.11,4.08,-3.29,1.26,-7.01,0.25,-0.23,0.21,3495,2019-04-03 15:52:49:552
-3.46,3.11,4.08,-3.29,1.26,-7.01,0.25,-0.23,0.21,3502,2019-04-03 15:52:49:559
-3.46,3.11,4.08,-3.29,1.26,-7.01,0.25,-0.23,0.21,3505,2019-04-03 15:52:49:562
0.64,7.0,8.86,0.44,5.05,-1.6,-0.03,0.08,0.26,3510,2019-04-03 15:52:49:567
0.64,7.0,8.86,0.44,5.05,-1.6,-0.03,0.08,0.26,3515,2019-04-03 15:52:49:572
0.64,7.0,8.86,0.44,5.05,-1.6,-0.03,0.08,0.26,3522,2019-04-03 15:52:49:579
0.64,7.0,8.86,0.44,5.05,-1.6,-0.03,0.08,0.26,3525,2019-04-03 15:52:49:582
4.78,-1.55,14.38,4.29,-3.1,3.9,0.19,0.22,0.26,3530,2019-04-03 15:52:49:587
4.78,-1.55,14.38,4.29,-3.1,3.9,0.19,0.22,0.26,3535,2019-04-03 15:52:49:592
4.78,-1.55,14.38,4.29,-3.1,3.9,0.19,0.22,0.26,3542,2019-04-03 15:52:49:599
4.78,-1.55,14.38,4.29,-3.1,3.9,0.19,0.22,0.26,3546,2019-04-03 15:52:49:603
1.98,-1.52,14.42,1.41,-2.88,3.76,-0.04,0.18,0.33,3553,2019-04-03 15:52:49:610
1.98,-1.52,14.42,1.41,-2.88,3.76,-0.04,0.18,0.33,3559,2019-04-03 15:52:49:616
1.98,-1.52,14.42,1.41,-2.88,3.76,-0.04,0.18,0.33,3560,2019-04-03 15:52:49:617
1.98,-1.52,14.42,1.41,-2.88,3.76,-0.04,0.18,0.33,3565,2019-04-03 15:52:49:622
1.98,-1.52,14.42,1.41,-2.88,3.76,-0.04,0.18,0.33,3570,2019-04-03 15:52:49:627
1.98,-1.52,14.42,1.41,-2.88,3.76,-0.04,0.18,0.33,3576,2019-04-03 15:52:49:633
-0.4,-4.2,-3.61,-0.9,-4.62,-13.24,-0.1,-0.02,0.29,3584,2019-04-03 15:52:49:641
-0.4,-4.2,-3.61,-0.9,-4.62,-13.24,-0.1,-0.02,0.29,3585,2019-04-03 15:52:49:642
-0.4,-4.2,-3.61,-0.9,-4.62,-13.24,-0.1,-0.02,0.29,3590,2019-04-03 15:52:49:647
-0.4,-4.2,-3.61,-0.9,-4.62,-13.24,-0.1,-0.02,0.29,3595,2019-04-03 15:52:49:652
-0.4,-4.2,-3.61,-0.9,-4.62,-13.24,-0.1,-0.02,0.29,3600,2019-04-03 15:52:49:657
-0.4,-4.2,-3.61,-0.9,-4.62,-13.24,-0.1,-0.02,0.29,3605,2019-04-03 15:52:49:662
0.69,-1.8,16.75,-0.9,-4.62,-13.24,0.01,0.04,0.07,3610,2019-04-03 15:52:49:667
0.69,-1.8,16.75,0.3,-2.04,7.63,0.01,0.04,0.07,3615,2019-04-03 15:52:49:672
0.69,-1.8,16.75,0.3,-2.04,7.63,0.01,0.04,0.07,3620,2019-04-03 15:52:49:677
0.69,-1.8,16.75,0.3,-2.04,7.63,0.01,0.04,0.07,3625,2019-04-03 15:52:49:682
0.69,-1.8,16.75,0.3,-2.04,7.63,0.01,0.04,0.07,3630,2019-04-03 15:52:49:687
0.69,-1.8,16.75,0.3,-2.04,7.63,0.01,0.04,0.07,3634,2019-04-03 15:52:49:691
-2.57,2.28,11.82,-2.63,2.02,2.35,0.11,0.18,0.06,3641,2019-04-03 15:52:49:698
-2.57,2.28,11.82,-2.63,2.02,2.35,0.11,0.18,0.06,3645,2019-04-03 15:52:49:702
-2.57,2.28,11.82,-2.63,2.02,2.35,0.11,0.18,0.06,3650,2019-04-03 15:52:49:707
-7.97,1.22,-0.22,-7.98,1.56,-9.55,-0.43,-0.29,-0.21,3655,2019-04-03 15:52:49:712
-7.97,1.22,-0.22,-7.98,1.56,-9.55,-0.43,-0.29,-0.21,3660,2019-04-03 15:52:49:717
-7.97,1.22,-0.22,-7.98,1.56,-9.55,-0.43,-0.29,-0.21,3665,2019-04-03 15:52:49:722
0.15,0.2,6.73,0.04,0.39,-2.81,0.04,-0.02,-0.2,3670,2019-04-03 15:52:49:727
0.15,0.2,6.73,0.04,0.39,-2.81,0.04,-0.02,-0.2,3675,2019-04-03 15:52:49:732
0.15,0.2,6.73,0.04,0.39,-2.81,0.04,-0.02,-0.2,3681,2019-04-03 15:52:49:738
0.15,0.2,6.73,0.04,0.39,-2.81,0.04,-0.02,-0.2,3685,2019-04-03 15:52:49:742
2.12,2.11,13.9,1.73,2.38,3.7,0.07,0.02,-0.18,3690,2019-04-03 15:52:49:747
2.12,2.11,13.9,1.73,2.38,3.7,0.07,0.02,-0.18,3696,2019-04-03 15:52:49:753
2.12,2.11,13.9,1.73,2.38,3.7,0.07,0.02,-0.18,3700,2019-04-03 15:52:49:757
2.12,2.11,13.9,1.73,2.38,3.7,0.07,0.02,-0.18,3705,2019-04-03 15:52:49:762
7.53,3.34,12.83,7.26,3.74,2.47,-0.13,0.46,0.06,3710,2019-04-03 15:52:49:767
7.53,3.34,12.83,7.26,3.74,2.47,-0.13,0.46,0.06,3715,2019-04-03 15:52:49:772
7.53,3.34,12.83,7.26,3.74,2.47,-0.13,0.46,0.06,3720,2019-04-03 15:52:49:777
7.53,3.34,12.83,7.26,3.74,2.47,-0.13,0.46,0.06,3725,2019-04-03 15:52:49:782
5.7,0.37,7.64,5.57,0.67,-2.52,-0.14,-0.01,0.05,3731,2019-04-03 15:52:49:788
5.7,0.37,7.64,5.57,0.67,-2.52,-0.14,-0.01,0.05,3736,2019-04-03 15:52:49:793
5.7,0.37,7.64,5.57,0.67,-2.52,-0.14,-0.01,0.05,3740,2019-04-03 15:52:49:797
5.7,0.37,7.64,5.57,0.67,-2.52,-0.14,-0.01,0.05,3745,2019-04-03 15:52:49:802
-5.65,3.72,1.04,-5.54,3.53,-7.8,0.19,-0.21,0.12,3750,2019-04-03 15:52:49:807
-5.65,3.72,1.04,-5.54,3.53,-7.8,0.19,-0.21,0.12,3755,2019-04-03 15:52:49:812
-5.65,3.72,1.04,-5.54,3.53,-7.8,0.19,-0.21,0.12,3761,2019-04-03 15:52:49:818
-5.65,3.72,1.04,-5.54,3.53,-7.8,0.19,-0.21,0.12,3765,2019-04-03 15:52:49:822
-5.65,3.72,1.04,-5.54,3.53,-7.8,0.19,-0.21,0.12,3770,2019-04-03 15:52:49:827
-5.65,3.72,1.04,-5.54,3.53,-7.8,0.19,-0.21,0.12,3775,2019-04-03 15:52:49:832
-5.55,7.58,3.35,-5.41,6.27,-5.66,0.09,-0.51,0.03,3780,2019-04-03 15:52:49:837
-5.55,7.58,3.35,-5.41,6.27,-5.66,0.09,-0.51,0.03,3785,2019-04-03 15:52:49:842
-5.55,7.58,3.35,-5.41,6.27,-5.66,0.09,-0.51,0.03,3790,2019-04-03 15:52:49:847
-5.55,7.58,3.35,-5.41,6.27,-5.66,0.11,-0.4,0.1,3795,2019-04-03 15:52:49:852
-5.55,7.58,3.35,-5.41,6.27,-5.66,0.11,-0.4,0.1,3800,2019-04-03 15:52:49:857
-5.55,7.58,3.35,-5.41,6.27,-5.66,0.11,-0.4,0.1,3805,2019-04-03 15:52:49:862
1.28,-2.07,8.93,-5.41,6.27,-5.66,0.07,0.44,0.2,3811,2019-04-03 15:52:49:868
1.28,-2.07,8.93,1.45,-3.48,-0.72,0.07,0.44,0.2,3815,2019-04-03 15:52:49:872
1.28,-2.07,8.93,1.45,-3.48,-0.72,0.07,0.44,0.2,3820,2019-04-03 15:52:49:877
1.28,-2.07,8.93,1.45,-3.48,-0.72,0.07,0.44,0.2,3825,2019-04-03 15:52:49:882
-1.21,-3.93,9.25,1.45,-3.48,-0.72,0.07,0.44,0.2,3830,2019-04-03 15:52:49:887
-1.21,-3.93,9.25,-1.35,-4.81,-0.01,0.03,-0.28,-0.02,3835,2019-04-03 15:52:49:892
-1.21,-3.93,9.25,-1.35,-4.81,-0.01,0.03,-0.28,-0.02,3840,2019-04-03 15:52:49:897
-1.21,-3.93,9.25,-1.35,-4.81,-0.01,0.03,-0.28,-0.02,3845,2019-04-03 15:52:49:902
-6.09,-5.95,-0.07,-6.62,-6.29,-8.95,-0.13,-0.42,-0.04,3850,2019-04-03 15:52:49:907
-6.09,-5.95,-0.07,-6.62,-6.29,-8.95,-0.13,-0.42,-0.04,3855,2019-04-03 15:52:49:912
-6.09,-5.95,-0.07,-6.62,-6.29,-8.95,-0.13,-0.42,-0.04,3860,2019-04-03 15:52:49:917
-6.09,-5.95,-0.07,-6.62,-6.29,-8.95,-0.13,-0.42,-0.04,3865,2019-04-03 15:52:49:922
9.8,-2.24,20.39,8.87,-2.2,11.2,0.13,0.09,0.04,3870,2019-04-03 15:52:49:927
9.8,-2.24,20.39,8.87,-2.2,11.2,0.13,0.09,0.04,3875,2019-04-03 15:52:49:932
9.8,-2.24,20.39,8.87,-2.2,11.2,0.13,0.09,0.04,3880,2019-04-03 15:52:49:937
9.8,-2.24,20.39,8.87,-2.2,11.2,0.13,0.09,0.04,3885,2019-04-03 15:52:49:942
9.8,-2.24,20.39,8.87,-2.2,11.2,0.13,0.09,0.04,3890,2019-04-03 15:52:49:947
9.8,-2.24,20.39,8.87,-2.2,11.2,0.13,0.09,0.04,3895,2019-04-03 15:52:49:952
9.21,5.75,16.98,8.87,-2.2,11.2,0.13,0.09,0.04,3900,2019-04-03 15:52:49:957
9.21,5.75,16.98,8.77,5.46,8.06,0.11,0.81,0.2,3905,2019-04-03 15:52:49:962
9.21,5.75,16.98,8.77,5.46,8.06,0.11,0.81,0.2,3910,2019-04-03 15:52:49:967
9.21,5.75,16.98,8.77,5.46,8.06,0.11,0.81,0.2,3915,2019-04-03 15:52:49:972
-6.25,4.93,1.59,-6.43,4.76,-7.06,-0.33,-0.1,0.07,3920,2019-04-03 15:52:49:977
-6.25,4.93,1.59,-6.43,4.76,-7.06,-0.33,-0.1,0.07,3926,2019-04-03 15:52:49:983
-6.25,4.93,1.59,-6.43,4.76,-7.06,-0.33,-0.1,0.07,3930,2019-04-03 15:52:49:987
-6.25,4.93,1.59,-6.43,4.76,-7.06,-0.33,-0.1,0.07,3934,2019-04-03 15:52:49:991
1.97,-4.64,11.74,-6.43,4.76,-7.06,0.36,-0.49,0.0,3940,2019-04-03 15:52:49:997
1.97,-4.64,11.74,1.31,-4.92,2.74,0.36,-0.49,0.0,3945,2019-04-03 15:52:50:002
1.97,-4.64,11.74,1.31,-4.92,2.74,0.36,-0.49,0.0,3950,2019-04-03 15:52:50:007
1.97,-4.64,11.74,1.31,-4.92,2.74,0.36,-0.49,0.0,3955,2019-04-03 15:52:50:012
6.84,4.79,8.97,6.14,4.78,-0.93,-0.01,0.58,0.26,3960,2019-04-03 15:52:50:017
6.84,4.79,8.97,6.14,4.78,-0.93,-0.01,0.58,0.26,3965,2019-04-03 15:52:50:022
6.84,4.79,8.97,6.14,4.78,-0.93,-0.01,0.58,0.26,3970,2019-04-03 15:52:50:027
-16.13,-0.44,5.9,-16.41,0.56,-3.88,-0.23,-0.32,0.06,3975,2019-04-03 15:52:50:032
-16.13,-0.44,5.9,-16.41,0.56,-3.88,-0.23,-0.32,0.06,3980,2019-04-03 15:52:50:037
-16.13,-0.44,5.9,-16.41,0.56,-3.88,-0.23,-0.32,0.06,3985,2019-04-03 15:52:50:042
-16.13,-0.44,5.9,-16.41,0.56,-3.88,-0.23,-0.32,0.06,3990,2019-04-03 15:52:50:047
-16.13,-0.44,5.9,-16.41,0.56,-3.88,-0.23,-0.32,0.06,3996,2019-04-03 15:52:50:053
-6.23,1.33,3.12,-16.41,0.56,-3.88,0.29,-0.76,-0.09,4000,2019-04-03 15:52:50:057
-6.23,1.33,3.12,-6.65,1.98,-5.53,0.29,-0.76,-0.09,4005,2019-04-03 15:52:50:062
-6.23,1.33,3.12,-6.65,1.98,-5.53,0.13,0.6,0.14,4009,2019-04-03 15:52:50:066
-8.63,-4.27,12.25,15.82,4.32,8.29,0.13,0.6,0.14,4015,2019-04-03 15:52:50:072
-8.63,-4.27,12.25,15.82,4.32,8.29,0.13,0.6,0.14,4021,2019-04-03 15:52:50:078
-8.63,-4.27,12.25,15.82,4.32,8.29,0.13,0.6,0.14,4025,2019-04-03 15:52:50:082
3.49,-4.1,16.01,2.42,-3.91,6.71,0.0,0.71,0.12,4030,2019-04-03 15:52:50:087
3.49,-4.1,16.01,2.42,-3.91,6.71,0.0,0.71,0.12,4035,2019-04-03 15:52:50:092
3.49,-4.1,16.01,2.42,-3.91,6.71,0.0,0.71,0.12,4040,2019-04-03 15:52:50:097
3.49,-4.1,16.01,2.42,-3.91,6.71,0.0,0.71,0.12,4045,2019-04-03 15:52:50:102
3.73,-0.26,10.65,2.42,-3.91,6.71,0.38,-0.06,0.0,4050,2019-04-03 15:52:50:107
3.73,-0.26,10.65,2.79,-0.94,1.36,0.38,-0.06,0.0,4055,2019-04-03 15:52:50:112
3.73,-0.26,10.65,2.79,-0.94,1.36,0.38,-0.06,0.0,4060,2019-04-03 15:52:50:117
3.73,-0.26,10.65,2.79,-0.94,1.36,0.38,-0.06,0.0,4065,2019-04-03 15:52:50:122
-8.23,0.57,8.92,-8.22,-0.07,-0.47,-0.27,-0.24,0.01,4071,2019-04-03 15:52:50:128
-8.23,0.57,8.92,-8.22,-0.07,-0.47,-0.27,-0.24,0.01,4075,2019-04-03 15:52:50:132
-8.23,0.57,8.92,-8.22,-0.07,-0.47,-0.27,-0.24,0.01,4080,2019-04-03 15:52:50:137
-8.23,0.57,8.92,-8.22,-0.07,-0.47,-0.27,-0.24,0.01,4085,2019-04-03 15:52:50:142
-0.69,-13.51,14.94,-1.04,-13.07,4.95,0.18,-0.47,-0.18,4090,2019-04-03 15:52:50:147
-0.69,-13.51,14.94,-1.04,-13.07,4.95,0.18,-0.47,-0.18,4095,2019-04-03 15:52:50:152
-0.69,-13.51,14.94,-1.04,-13.07,4.95,0.18,-0.47,-0.18,4100,2019-04-03 15:52:50:157
-0.69,-13.51,14.94,-1.04,-13.07,4.95,0.18,-0.47,-0.18,4105,2019-04-03 15:52:50:162
6.6,2.71,16.38,-1.04,-13.07,4.95,0.18,-0.47,-0.18,4111,2019-04-03 15:52:50:168
6.6,2.71,16.38,5.74,3.14,5.53,-0.23,0.23,-0.08,4116,2019-04-03 15:52:50:173
6.6,2.71,16.38,5.74,3.14,5.53,-0.23,0.23,-0.08,4120,2019-04-03 15:52:50:177
6.6,2.71,16.38,5.74,3.14,5.53,-0.23,0.23,-0.08,4125,2019-04-03 15:52:50:182
6.6,2.71,16.38,5.74,3.14,5.53,-0.23,0.23,-0.08,4130,2019-04-03 15:52:50:187
-8.5,-4.41,12.51,-8.11,-3.38,1.3,-0.22,0.23,-0.14,4135,2019-04-03 15:52:50:192
-8.5,-4.41,12.51,-8.11,-3.38,1.3,-0.22,0.23,-0.14,4140,2019-04-03 15:52:50:197
-8.5,-4.41,12.51,-8.11,-3.38,1.3,-0.22,0.23,-0.14,4145,2019-04-03 15:52:50:202
0.78,7.63,15.5,-8.11,-3.38,1.3,-0.22,0.23,-0.14,4150,2019-04-03 15:52:50:207
0.78,7.63,15.5,0.66,8.03,3.75,0.49,-0.52,-0.45,4155,2019-04-03 15:52:50:212
0.78,7.63,15.5,0.66,8.03,3.75,0.49,-0.52,-0.45,4161,2019-04-03 15:52:50:218
0.78,7.63,15.5,0.66,8.03,3.75,0.49,-0.52,-0.45,4166,2019-04-03 15:52:50:223
7.01,7.72,10.94,6.1,7.42,-1.37,-0.25,0.12,-0.38,4170,2019-04-03 15:52:50:227
7.01,7.72,10.94,6.1,7.42,-1.37,-0.25,0.12,-0.38,4175,2019-04-03 15:52:50:232
7.01,7.72,10.94,6.1,7.42,-1.37,-0.25,0.12,-0.38,4181,2019-04-03 15:52:50:238
7.01,7.72,10.94,6.1,7.42,-1.37,-0.25,0.12,-0.38,4185,2019-04-03 15:52:50:242
7.01,7.72,10.94,6.1,7.42,-1.37,-0.25,0.12,-0.38,4190,2019-04-03 15:52:50:247
7.01,7.72,10.94,6.1,7.42,-1.37,-0.25,0.12,-0.38,4195,2019-04-03 15:52:50:252
4.74,-3.93,9.46,4.3,-3.92,-2.89,-0.03,0.35,-0.3,4201,2019-04-03 15:52:50:258
4.74,-3.93,9.46,4.3,-3.92,-2.89,-0.03,0.35,-0.3,4205,2019-04-03 15:52:50:262
4.74,-3.93,9.46,4.3,-3.92,-2.89,-0.03,0.35,-0.3,4211,2019-04-03 15:52:50:268
9.86,-1.61,20.73,-5.36,7.76,-7.57,0.3,-0.12,-0.17,4215,2019-04-03 15:52:50:272
9.86,-1.61,20.73,-5.36,7.76,-7.57,0.3,-0.12,-0.17,4220,2019-04-03 15:52:50:277
9.86,-1.61,20.73,-5.36,7.76,-7.57,0.3,-0.12,-0.17,4225,2019-04-03 15:52:50:282
-5.56,5.74,12.45,-5.92,4.94,0.19,-0.23,-0.63,-0.14,4230,2019-04-03 15:52:50:287
-5.56,5.74,12.45,-5.92,4.94,0.19,-0.23,-0.63,-0.14,4236,2019-04-03 15:52:50:293
-5.56,5.74,12.45,-5.92,4.94,0.19,-0.23,-0.63,-0.14,4239,2019-04-03 15:52:50:296
-5.56,5.74,12.45,-5.92,4.94,0.19,-0.23,-0.63,-0.14,4245,2019-04-03 15:52:50:302
12.62,-0.01,16.03,-5.92,4.94,0.19,0.38,-0.05,0.01,4250,2019-04-03 15:52:50:307
12.62,-0.01,16.03,11.77,-1.14,3.12,0.38,-0.05,0.01,4255,2019-04-03 15:52:50:312
12.62,-0.01,16.03,11.77,-1.14,3.12,0.38,-0.05,0.01,4260,2019-04-03 15:52:50:317
12.62,-0.01,16.03,11.77,-1.14,3.12,0.38,-0.05,0.01,4265,2019-04-03 15:52:50:322
12.62,-0.01,16.03,11.77,-1.14,3.12,0.38,-0.05,0.01,4270,2019-04-03 15:52:50:327
12.62,-0.01,16.03,11.77,-1.14,3.12,0.38,-0.05,0.01,4275,2019-04-03 15:52:50:332
4.26,3.07,12.16,11.77,-1.14,3.12,0.38,-0.05,0.01,4281,2019-04-03 15:52:50:338
4.26,3.07,12.16,3.36,1.58,-0.44,0.03,0.79,0.23,4284,2019-04-03 15:52:50:341
4.26,3.07,12.16,3.36,1.58,-0.44,0.03,0.79,0.23,4290,2019-04-03 15:52:50:347
4.26,3.07,12.16,3.36,1.58,-0.44,0.03,0.79,0.23,4295,2019-04-03 15:52:50:352
4.26,3.07,12.16,3.36,1.58,-0.44,0.03,0.79,0.23,4300,2019-04-03 15:52:50:357
4.26,3.07,12.16,3.36,1.58,-0.44,0.03,0.79,0.23,4305,2019-04-03 15:52:50:362
0.04,1.06,5.51,3.36,1.58,-0.44,0.03,0.79,0.23,4310,2019-04-03 15:52:50:367
0.04,1.06,5.51,-0.51,-0.96,-6.15,0.14,-0.26,0.09,4315,2019-04-03 15:52:50:372
0.04,1.06,5.51,-0.51,-0.96,-6.15,0.14,-0.26,0.09,4320,2019-04-03 15:52:50:377
0.04,1.06,5.51,-0.51,-0.96,-6.15,0.14,-0.26,0.09,4325,2019-04-03 15:52:50:382
3.06,5.32,7.38,1.72,2.4,-3.61,-0.02,0.09,0.23,4330,2019-04-03 15:52:50:387
3.06,5.32,7.38,1.72,2.4,-3.61,-0.02,0.09,0.23,4335,2019-04-03 15:52:50:392
3.06,5.32,7.38,1.72,2.4,-3.61,-0.02,0.09,0.23,4340,2019-04-03 15:52:50:397
3.06,5.32,7.38,1.72,2.4,-3.61,-0.02,0.09,0.23,4346,2019-04-03 15:52:50:403
-1.48,-0.88,7.93,1.72,2.4,-3.61,-0.09,0.09,0.26,4350,2019-04-03 15:52:50:407
-1.48,-0.88,7.93,-2.33,-3.05,-2.56,-0.09,0.09,0.26,4355,2019-04-03 15:52:50:412
-1.48,-0.88,7.93,-2.33,-3.05,-2.56,-0.09,0.09,0.26,4361,2019-04-03 15:52:50:418
-1.48,-0.88,7.93,-2.33,-3.05,-2.56,-0.09,0.09,0.26,4365,2019-04-03 15:52:50:422
-1.48,-0.88,7.93,-2.33,-3.05,-2.56,-0.09,0.09,0.26,4371,2019-04-03 15:52:50:428
-1.48,-0.88,7.93,-2.33,-3.05,-2.56,-0.09,0.09,0.26,4375,2019-04-03 15:52:50:432
0.16,-0.57,1.24,-2.33,-3.05,-2.56,-0.09,0.09,0.26,4380,2019-04-03 15:52:50:437
0.16,-0.57,1.24,-0.49,-2.15,-8.83,-0.04,-0.11,0.17,4385,2019-04-03 15:52:50:442
0.16,-0.57,1.24,-0.49,-2.15,-8.83,-0.04,-0.11,0.17,4390,2019-04-03 15:52:50:447
0.16,-0.57,1.24,-0.49,-2.15,-8.83,-0.04,-0.11,0.17,4395,2019-04-03 15:52:50:452
-0.23,3.47,8.76,-1.0,1.74,-1.21,-0.19,0.05,0.2,4400,2019-04-03 15:52:50:457
-0.23,3.47,8.76,-1.0,1.74,-1.21,-0.19,0.05,0.2,4405,2019-04-03 15:52:50:462
-0.23,3.47,8.76,-1.0,1.74,-1.21,-0.19,0.05,0.2,4410,2019-04-03 15:52:50:467
4.11,2.84,11.46,-4.75,-1.52,0.83,-0.32,0.25,0.15,4415,2019-04-03 15:52:50:472
4.11,2.84,11.46,-4.75,-1.52,0.83,-0.32,0.25,0.15,4420,2019-04-03 15:52:50:477
4.11,2.84,11.46,-4.75,-1.52,0.83,-0.32,0.25,0.15,4424,2019-04-03 15:52:50:481
0.85,1.07,8.77,0.35,-0.31,-1.24,0.08,-0.1,0.1,4430,2019-04-03 15:52:50:487
0.85,1.07,8.77,0.35,-0.31,-1.24,0.08,-0.1,0.1,4435,2019-04-03 15:52:50:492
0.85,1.07,8.77,0.35,-0.31,-1.24,0.08,-0.1,0.1,4440,2019-04-03 15:52:50:497
0.85,1.07,8.77,0.35,-0.31,-1.24,0.08,-0.1,0.1,4446,2019-04-03 15:52:50:503
3.18,-0.48,7.45,3.16,-1.26,-2.1,-0.3,0.22,0.21,4451,2019-04-03 15:52:50:508
3.18,-0.48,7.45,3.16,-1.26,-2.1,-0.3,0.22,0.21,4455,2019-04-03 15:52:50:512
3.18,-0.48,7.45,3.16,-1.26,-2.1,-0.3,0.22,0.21,4460,2019-04-03 15:52:50:517
3.18,-0.48,7.45,3.16,-1.26,-2.1,-0.3,0.22,0.21,4465,2019-04-03 15:52:50:522
-2.05,-3.51,8.4,-2.29,-4.09,-1.1,-0.02,0.19,0.2,4470,2019-04-03 15:52:50:527
-2.05,-3.51,8.4,-2.29,-4.09,-1.1,-0.02,0.19,0.2,4475,2019-04-03 15:52:50:532
-2.05,-3.51,8.4,-2.29,-4.09,-1.1,-0.02,0.19,0.2,4481,2019-04-03 15:52:50:538
-2.05,-3.51,8.4,-2.29,-4.09,-1.1,-0.02,0.19,0.2,4485,2019-04-03 15:52:50:542
-9.1,-2.92,-5.78,-9.64,-2.94,-14.17,-0.03,-0.41,0.13,4490,2019-04-03 15:52:50:547
-9.1,-2.92,-5.78,-9.64,-2.94,-14.17,-0.03,-0.41,0.13,4495,2019-04-03 15:52:50:552
-9.1,-2.92,-5.78,-9.64,-2.94,-14.17,-0.03,-0.41,0.13,4499,2019-04-03 15:52:50:556
-9.1,-2.92,-5.78,-9.64,-2.94,-14.17,-0.03,-0.41,0.13,4505,2019-04-03 15:52:50:562
14.26,-10.73,13.1,-9.64,-2.94,-14.17,-0.03,-0.41,0.13,4510,2019-04-03 15:52:50:567
14.26,-10.73,13.1,13.25,-9.76,4.76,-0.12,-0.23,0.13,4515,2019-04-03 15:52:50:572
14.26,-10.73,13.1,13.25,-9.76,4.76,-0.12,-0.23,0.13,4520,2019-04-03 15:52:50:577
14.26,-10.73,13.1,13.25,-9.76,4.76,-0.12,-0.23,0.13,4525,2019-04-03 15:52:50:582
-5.53,2.57,12.49,13.25,-9.76,4.76,0.16,0.84,0.34,4530,2019-04-03 15:52:50:587
-5.53,2.57,12.49,-5.71,3.74,4.21,0.16,0.84,0.34,4536,2019-04-03 15:52:50:593
-5.53,2.57,12.49,-5.71,3.74,4.21,0.16,0.84,0.34,4541,2019-04-03 15:52:50:598
-5.53,2.57,12.49,-5.71,3.74,4.21,0.16,0.84,0.34,4545,2019-04-03 15:52:50:602
-5.53,2.57,12.49,-5.71,3.74,4.21,0.16,0.84,0.34,4550,2019-04-03 15:52:50:607
-5.53,2.57,12.49,-5.71,3.74,4.21,0.16,0.84,0.34,4555,2019-04-03 15:52:50:612
-7.19,8.83,6.73,-5.71,3.74,4.21,-0.14,-0.38,0.0,4560,2019-04-03 15:52:50:617
-7.19,8.83,6.73,-7.27,9.44,-1.61,-0.14,-0.38,0.0,4565,2019-04-03 15:52:50:622
-7.19,8.83,6.73,-7.27,9.44,-1.61,-0.14,-0.38,0.0,4570,2019-04-03 15:52:50:627
-7.21,3.28,13.04,-7.27,9.44,-1.61,-0.19,-0.49,0.0,4575,2019-04-03 15:52:50:632
-7.21,3.28,13.04,-7.27,9.44,-1.61,-0.19,-0.49,0.0,4580,2019-04-03 15:52:50:637
-7.21,3.28,13.04,-7.27,9.44,-1.61,-0.19,-0.49,0.0,4586,2019-04-03 15:52:50:643
-7.21,3.28,13.04,-7.27,9.44,-1.61,-0.19,-0.49,0.0,4590,2019-04-03 15:52:50:647
-7.21,3.28,13.04,-7.27,9.44,-1.61,-0.19,-0.49,0.0,4595,2019-04-03 15:52:50:652
7.45,0.52,13.34,-7.27,9.44,-1.61,0.37,-0.22,-0.14,4600,2019-04-03 15:52:50:657
7.45,0.52,13.34,7.31,0.21,3.52,0.37,-0.22,-0.14,4605,2019-04-03 15:52:50:662
7.45,0.52,13.34,7.31,0.21,3.52,0.37,-0.22,-0.14,4610,2019-04-03 15:52:50:667
10.54,4.34,8.8,7.31,0.21,3.52,-0.12,0.5,-0.02,4615,2019-04-03 15:52:50:672
10.54,4.34,8.8,7.31,0.21,3.52,-0.12,0.5,-0.02,4620,2019-04-03 15:52:50:677
10.54,4.34,8.8,7.31,0.21,3.52,-0.12,0.5,-0.02,4625,2019-04-03 15:52:50:682
-3.34,5.98,11.95,7.31,0.21,3.52,-0.04,0.57,-0.01,4630,2019-04-03 15:52:50:687
-3.34,5.98,11.95,-2.77,5.39,1.67,-0.04,0.57,-0.01,4636,2019-04-03 15:52:50:693
-3.34,5.98,11.95,-2.77,5.39,1.67,-0.04,0.57,-0.01,4640,2019-04-03 15:52:50:697
-3.34,5.98,11.95,-2.77,5.39,1.67,-0.04,0.57,-0.01,4645,2019-04-03 15:52:50:702
-8.54,-0.43,0.84,-8.05,-1.37,-9.42,0.09,-0.51,-0.26,4650,2019-04-03 15:52:50:707
-8.54,-0.43,0.84,-8.05,-1.37,-9.42,0.09,-0.51,-0.26,4655,2019-04-03 15:52:50:712
-8.54,-0.43,0.84,-8.05,-1.37,-9.42,0.09,-0.51,-0.26,4660,2019-04-03 15:52:50:717
-8.54,-0.43,0.84,-8.05,-1.37,-9.42,0.09,-0.51,-0.26,4665,2019-04-03 15:52:50:722
-8.54,-0.43,0.84,-8.05,-1.37,-9.42,0.09,-0.51,-0.26,4669,2019-04-03 15:52:50:726
-8.54,-0.43,0.84,-8.05,-1.37,-9.42,0.09,-0.51,-0.26,4675,2019-04-03 15:52:50:732
7.34,-0.26,2.75,7.53,-1.09,-7.25,-0.12,-0.16,-0.23,4681,2019-04-03 15:52:50:738
7.34,-0.26,2.75,7.53,-1.09,-7.25,-0.12,-0.16,-0.23,4685,2019-04-03 15:52:50:742
7.34,-0.26,2.75,7.53,-1.09,-7.25,-0.12,-0.16,-0.23,4690,2019-04-03 15:52:50:747
7.34,-0.26,2.75,7.53,-1.09,-7.25,-0.12,-0.16,-0.23,4695,2019-04-03 15:52:50:752
-5.13,0.45,13.44,7.53,-1.09,-7.25,0.01,0.32,-0.17,4700,2019-04-03 15:52:50:757
-5.13,0.45,13.44,-4.4,-0.85,2.36,0.01,0.32,-0.17,4705,2019-04-03 15:52:50:762
-5.13,0.45,13.44,-4.4,-0.85,2.36,0.01,0.32,-0.17,4710,2019-04-03 15:52:50:767
-0.73,2.71,10.37,-4.4,-0.85,2.36,0.12,-0.39,-0.38,4715,2019-04-03 15:52:50:772
-0.73,2.71,10.37,-4.4,-0.85,2.36,0.12,-0.39,-0.38,4719,2019-04-03 15:52:50:776
-0.73,2.71,10.37,-4.4,-0.85,2.36,0.12,-0.39,-0.38,4725,2019-04-03 15:52:50:782
28.85,-3.78,16.56,27.87,-6.52,4.44,-0.29,0.19,-0.2,4730,2019-04-03 15:52:50:787
28.85,-3.78,16.56,27.87,-6.52,4.44,-0.29,0.19,-0.2,4735,2019-04-03 15:52:50:792
28.85,-3.78,16.56,27.87,-6.52,4.44,-0.29,0.19,-0.2,4740,2019-04-03 15:52:50:797
28.85,-3.78,16.56,27.87,-6.52,4.44,-0.29,0.19,-0.2,4744,2019-04-03 15:52:50:801
28.85,-3.78,16.56,27.87,-6.52,4.44,-0.29,0.19,-0.2,4750,2019-04-03 15:52:50:807
28.85,-3.78,16.56,27.87,-6.52,4.44,-0.29,0.19,-0.2,4755,2019-04-03 15:52:50:812
-9.45,2.62,3.21,27.87,-6.52,4.44,-0.29,0.19,-0.2,4760,2019-04-03 15:52:50:817
-9.45,2.62,3.21,-9.36,0.45,-7.82,-0.11,1.63,0.2,4765,2019-04-03 15:52:50:822
-9.45,2.62,3.21,-9.36,0.45,-7.82,-0.11,1.63,0.2,4770,2019-04-03 15:52:50:827
-9.45,2.62,3.21,-9.36,0.45,-7.82,-0.11,1.63,0.2,4776,2019-04-03 15:52:50:833
-9.45,2.62,3.21,-9.36,0.45,-7.82,-0.11,1.63,0.2,4780,2019-04-03 15:52:50:837
-29.49,-8.31,4.26,-29.65,-9.34,-7.02,-0.72,-1.66,-0.36,4785,2019-04-03 15:52:50:842
-29.49,-8.31,4.26,-29.65,-9.34,-7.02,-0.72,-1.66,-0.36,4790,2019-04-03 15:52:50:847
-29.49,-8.31,4.26,-29.65,-9.34,-7.02,-0.72,-1.66,-0.36,4795,2019-04-03 15:52:50:852
-29.49,-8.31,4.26,-29.65,-9.34,-7.02,-0.72,-1.66,-0.36,4801,2019-04-03 15:52:50:858
-29.49,-8.31,4.26,-29.65,-9.34,-7.02,-0.72,-1.66,-0.36,4805,2019-04-03 15:52:50:862
6.45,0.8,25.1,-29.65,-9.34,-7.02,-0.72,0.68,0.11,4810,2019-04-03 15:52:50:867
6.45,0.8,25.1,6.1,-0.12,12.62,-0.72,0.68,0.11,4815,2019-04-03 15:52:50:872
6.45,0.8,25.1,6.1,-0.12,12.62,0.11,0.62,0.04,4820,2019-04-03 15:52:50:877
6.45,0.8,25.1,6.1,-0.12,12.62,0.11,0.62,0.04,4825,2019-04-03 15:52:50:882
6.45,0.8,25.1,6.1,-0.12,12.62,0.11,0.62,0.04,4830,2019-04-03 15:52:50:887
6.45,0.8,25.1,6.1,-0.12,12.62,0.11,0.62,0.04,4835,2019-04-03 15:52:50:892
10.07,-0.32,13.76,9.1,-0.51,1.68,-0.55,-0.74,-0.19,4840,2019-04-03 15:52:50:897
10.07,-0.32,13.76,9.1,-0.51,1.68,-0.55,-0.74,-0.19,4845,2019-04-03 15:52:50:902
10.07,-0.32,13.76,9.1,-0.51,1.68,-0.55,-0.74,-0.19,4851,2019-04-03 15:52:50:908
10.07,-0.32,13.76,9.1,-0.51,1.68,-0.55,-0.74,-0.19,4855,2019-04-03 15:52:50:912
10.07,-0.32,13.76,9.1,-0.51,1.68,-0.55,-0.74,-0.19,4861,2019-04-03 15:52:50:918
7.6,0.2,17.4,6.1,-1.08,3.8,-0.56,-1.38,-0.1,4865,2019-04-03 15:52:50:922
7.6,0.2,17.4,6.1,-1.08,3.8,-0.56,-1.38,-0.1,4870,2019-04-03 15:52:50:927
7.6,0.2,17.4,6.1,-1.08,3.8,-0.56,-1.38,-0.1,4875,2019-04-03 15:52:50:932
7.6,0.2,17.4,6.1,-1.08,3.8,-0.56,-1.38,-0.1,4880,2019-04-03 15:52:50:937
7.6,0.2,17.4,6.1,-1.08,3.8,-0.56,-1.38,-0.1,4884,2019-04-03 15:52:50:941
18.81,-2.11,16.35,6.1,-1.08,3.8,0.58,1.14,0.47,4890,2019-04-03 15:52:50:947
18.81,-2.11,16.35,17.01,-3.83,3.39,0.58,1.14,0.47,4895,2019-04-03 15:52:50:952
18.81,-2.11,16.35,17.01,-3.83,3.39,-0.36,0.61,0.42,4900,2019-04-03 15:52:50:957
18.81,-2.11,16.35,17.01,-3.83,3.39,-0.36,0.61,0.42,4905,2019-04-03 15:52:50:962
18.81,-2.11,16.35,17.01,-3.83,3.39,-0.36,0.61,0.42,4910,2019-04-03 15:52:50:967
0.07,-10.09,16.08,0.05,-10.46,4.29,-0.03,-0.65,0.13,4923,2019-04-03 15:52:50:980
0.07,-10.09,16.08,0.05,-10.46,4.29,-0.03,-0.65,0.13,4925,2019-04-03 15:52:50:982
0.07,-10.09,16.08,0.05,-10.46,4.29,-0.03,-0.65,0.13,4926,2019-04-03 15:52:50:983
0.07,-10.09,16.08,0.05,-10.46,4.29,-0.03,-0.65,0.13,4931,2019-04-03 15:52:50:988
0.07,-10.09,16.08,0.05,-10.46,4.29,-0.03,-0.65,0.13,4938,2019-04-03 15:52:50:995
-4.28,6.78,6.6,-5.08,6.15,-5.89,0.54,0.24,0.29,4941,2019-04-03 15:52:50:998
-4.28,6.78,6.6,-5.08,6.15,-5.89,0.54,0.24,0.29,4945,2019-04-03 15:52:51:002
-4.28,6.78,6.6,-5.08,6.15,-5.89,0.54,0.24,0.29,4950,2019-04-03 15:52:51:007
-4.28,6.78,6.6,-5.08,6.15,-5.89,0.54,0.24,0.29,4955,2019-04-03 15:52:51:012
-4.28,6.78,6.6,-5.08,6.15,-5.89,0.54,0.24,0.29,4961,2019-04-03 15:52:51:018
-4.28,6.78,6.6,-5.08,6.15,-5.89,0.54,0.24,0.29,4965,2019-04-03 15:52:51:022
-1.93,-0.06,2.0,-5.08,6.15,-5.89,0.54,0.24,0.29,4970,2019-04-03 15:52:51:027
-1.93,-0.06,2.0,-3.14,-1.36,-9.36,-0.67,-0.43,0.03,4975,2019-04-03 15:52:51:032
-1.93,-0.06,2.0,-3.14,-1.36,-9.36,0.46,0.22,0.03,4980,2019-04-03 15:52:51:037
-4.6,-4.34,0.04,-3.14,-1.36,-9.36,0.46,0.22,0.03,4985,2019-04-03 15:52:51:042
-4.6,-4.34,0.04,-3.14,-1.36,-9.36,0.46,0.22,0.03,4991,2019-04-03 15:52:51:048
-4.6,-4.34,0.04,-3.14,-1.36,-9.36,0.46,0.22,0.03,4995,2019-04-03 15:52:51:052
-4.6,-4.34,0.04,-3.14,-1.36,-9.36,0.46,0.22,0.03,5000,2019-04-03 15:52:51:057
-4.6,-4.34,0.04,-3.14,-1.36,-9.36,0.46,0.22,0.03,5005,2019-04-03 15:52:51:062
3.42,6.77,7.67,-3.14,-1.36,-9.36,0.46,0.22,0.03,5010,2019-04-03 15:52:51:067
3.42,6.77,7.67,2.88,5.91,-0.93,0.23,0.47,-0.04,5015,2019-04-03 15:52:51:072
3.42,6.77,7.67,2.88,5.91,-0.93,0.23,0.47,-0.04,5021,2019-04-03 15:52:51:078
3.42,6.77,7.67,2.88,5.91,-0.93,0.23,0.47,-0.04,5025,2019-04-03 15:52:51:082
3.42,6.77,7.67,2.88,5.91,-0.93,0.23,0.47,-0.04,5030,2019-04-03 15:52:51:087
3.42,6.77,7.67,2.88,5.91,-0.93,0.23,0.47,-0.04,5035,2019-04-03 15:52:51:092
6.29,1.08,10.77,5.37,0.95,1.56,0.53,0.06,-0.37,5040,2019-04-03 15:52:51:097
6.29,1.08,10.77,5.37,0.95,1.56,0.53,0.06,-0.37,5045,2019-04-03 15:52:51:102
6.29,1.08,10.77,5.37,0.95,1.56,0.53,0.06,-0.37,5050,2019-04-03 15:52:51:107
6.29,1.08,10.77,5.37,0.95,1.56,0.53,0.06,-0.37,5055,2019-04-03 15:52:51:112
-3.06,3.52,8.35,5.37,0.95,1.56,-0.08,0.08,-0.47,5060,2019-04-03 15:52:51:117
-3.06,3.52,8.35,-2.52,3.61,0.06,-0.08,0.08,-0.47,5065,2019-04-03 15:52:51:122
-3.06,3.52,8.35,-2.52,3.61,0.06,-0.08,0.08,-0.47,5071,2019-04-03 15:52:51:128
-3.06,3.52,8.35,-2.52,3.61,0.06,-0.08,0.08,-0.47,5075,2019-04-03 15:52:51:132
-3.06,3.52,8.35,-2.52,3.61,0.06,-0.08,0.08,-0.47,5081,2019-04-03 15:52:51:138
-1.12,-4.85,2.69,-2.52,3.61,0.06,0.0,-0.36,-0.61,5086,2019-04-03 15:52:51:143
-1.12,-4.85,2.69,-0.58,-4.07,-5.41,0.0,-0.36,-0.61,5090,2019-04-03 15:52:51:147
-1.12,-4.85,2.69,-0.58,-4.07,-5.41,0.0,-0.36,-0.61,5094,2019-04-03 15:52:51:151
-1.12,-4.85,2.69,-0.58,-4.07,-5.41,0.0,-0.36,-0.61,5100,2019-04-03 15:52:51:157
19.46,-4.85,2.96,-8.2,-0.86,-10.82,0.44,-0.05,-0.56,5106,2019-04-03 15:52:51:163
19.46,-4.85,2.96,-8.2,-0.86,-10.82,0.44,-0.05,-0.56,5110,2019-04-03 15:52:51:167
19.46,-4.85,2.96,-8.2,-0.86,-10.82,0.44,-0.05,-0.56,5115,2019-04-03 15:52:51:172
0.43,6.57,4.92,0.55,6.84,-2.02,-0.27,0.78,-0.23,5120,2019-04-03 15:52:51:177
0.43,6.57,4.92,0.55,6.84,-2.02,-0.27,0.78,-0.23,5125,2019-04-03 15:52:51:182
0.43,6.57,4.92,0.55,6.84,-2.02,-0.27,0.78,-0.23,5130,2019-04-03 15:52:51:187
0.43,6.57,4.92,0.55,6.84,-2.02,-0.27,0.78,-0.23,5136,2019-04-03 15:52:51:193
-12.67,-0.11,-0.21,-13.3,0.36,-7.24,-0.14,-0.84,-0.53,5144,2019-04-03 15:52:51:201
-12.67,-0.11,-0.21,-13.3,0.36,-7.24,-0.14,-0.84,-0.53,5145,2019-04-03 15:52:51:202
-12.67,-0.11,-0.21,-13.3,0.36,-7.24,-0.14,-0.84,-0.53,5150,2019-04-03 15:52:51:207
-12.67,-0.11,-0.21,-13.3,0.36,-7.24,-0.14,-0.84,-0.53,5155,2019-04-03 15:52:51:212
-12.67,-0.11,-0.21,-13.3,0.36,-7.24,-0.14,-0.84,-0.53,5160,2019-04-03 15:52:51:217
-12.67,-0.11,-0.21,-13.3,0.36,-7.24,-0.14,-0.84,-0.53,5165,2019-04-03 15:52:51:222
3.86,1.94,15.44,-13.3,0.36,-7.24,-0.14,-0.84,-0.53,5170,2019-04-03 15:52:51:227
3.86,1.94,15.44,2.94,1.92,8.19,0.44,-0.82,-0.46,5175,2019-04-03 15:52:51:232
3.86,1.94,15.44,2.94,1.92,8.19,0.44,-0.82,-0.46,5180,2019-04-03 15:52:51:237
7.7,5.34,15.39,2.94,1.92,8.19,0.44,-0.82,-0.46,5185,2019-04-03 15:52:51:242
7.7,5.34,15.39,2.94,1.92,8.19,0.44,-0.82,-0.46,5191,2019-04-03 15:52:51:248
7.7,5.34,15.39,2.94,1.92,8.19,0.44,-0.82,-0.46,5195,2019-04-03 15:52:51:252
3.31,-0.59,13.15,2.94,1.92,8.19,0.0,0.31,-0.31,5199,2019-04-03 15:52:51:256
3.31,-0.59,13.15,2.65,-0.85,4.31,0.0,0.31,-0.31,5204,2019-04-03 15:52:51:261
3.31,-0.59,13.15,2.65,-0.85,4.31,0.0,0.31,-0.31,5210,2019-04-03 15:52:51:267
3.31,-0.59,13.15,2.65,-0.85,4.31,0.0,0.31,-0.31,5216,2019-04-03 15:52:51:273
3.31,-0.59,13.15,2.65,-0.85,4.31,0.0,0.31,-0.31,5220,2019-04-03 15:52:51:277
3.31,-0.59,13.15,2.65,-0.85,4.31,0.0,0.31,-0.31,5225,2019-04-03 15:52:51:282
0.37,0.65,6.39,-0.54,-0.02,-1.37,0.15,-0.12,-0.29,5230,2019-04-03 15:52:51:287
0.37,0.65,6.39,-0.54,-0.02,-1.37,0.15,-0.12,-0.29,5235,2019-04-03 15:52:51:292
0.37,0.65,6.39,-0.54,-0.02,-1.37,0.15,-0.12,-0.29,5240,2019-04-03 15:52:51:297
0.37,0.65,6.39,-0.54,-0.02,-1.37,0.15,-0.12,-0.29,5245,2019-04-03 15:52:51:302
-0.74,6.84,10.04,-0.54,-0.02,-1.37,-0.16,-0.15,-0.15,5250,2019-04-03 15:52:51:307
-0.74,6.84,10.04,-1.7,6.34,2.17,-0.16,-0.15,-0.15,5254,2019-04-03 15:52:51:311
-0.74,6.84,10.04,-1.7,6.34,2.17,-0.16,-0.15,-0.15,5261,2019-04-03 15:52:51:318
-0.74,6.84,10.04,-1.7,6.34,2.17,-0.16,-0.15,-0.15,5265,2019-04-03 15:52:51:322
-0.84,2.25,12.78,-2.08,1.27,4.53,0.15,-0.18,-0.1,5270,2019-04-03 15:52:51:327
-0.84,2.25,12.78,-2.08,1.27,4.53,0.15,-0.18,-0.1,5275,2019-04-03 15:52:51:332
-0.84,2.25,12.78,-2.08,1.27,4.53,0.15,-0.18,-0.1,5280,2019-04-03 15:52:51:337
-0.84,2.25,12.78,-1.09,5.51,5.8,-0.01,0.09,0.17,5285,2019-04-03 15:52:51:342
-0.84,2.25,12.78,-1.09,5.51,5.8,-0.01,0.09,0.17,5291,2019-04-03 15:52:51:348
-0.84,2.25,12.78,-1.09,5.51,5.8,-0.01,0.09,0.17,5294,2019-04-03 15:52:51:351
6.21,9.94,9.76,-1.09,5.51,5.8,-0.3,0.1,0.23,5299,2019-04-03 15:52:51:356
6.21,9.94,9.76,4.94,7.13,-0.09,-0.3,0.1,0.23,5305,2019-04-03 15:52:51:362
6.21,9.94,9.76,4.94,7.13,-0.09,-0.3,0.1,0.23,5310,2019-04-03 15:52:51:367
6.21,9.94,9.76,4.94,7.13,-0.09,-0.3,0.1,0.23,5315,2019-04-03 15:52:51:372
6.21,9.94,9.76,4.94,7.13,-0.09,-0.3,0.1,0.23,5320,2019-04-03 15:52:51:377
6.21,9.94,9.76,4.94,7.13,-0.09,-0.3,0.1,0.23,5325,2019-04-03 15:52:51:382
5.72,-9.04,2.75,3.77,-11.79,-7.53,0.07,0.32,0.42,5329,2019-04-03 15:52:51:386
5.72,-9.04,2.75,3.77,-11.79,-7.53,0.07,0.32,0.42,5335,2019-04-03 15:52:51:392
5.72,-9.04,2.75,3.77,-11.79,-7.53,0.35,0.02,0.48,5340,2019-04-03 15:52:51:397
5.72,-9.04,2.75,3.77,-11.79,-7.53,0.35,0.02,0.48,5345,2019-04-03 15:52:51:402
5.72,-9.04,2.75,3.77,-11.79,-7.53,0.35,0.02,0.48,5351,2019-04-03 15:52:51:408
5.72,-9.04,2.75,3.77,-11.79,-7.53,0.35,0.02,0.48,5356,2019-04-03 15:52:51:413
5.72,-9.04,2.75,3.77,-11.79,-7.53,0.35,0.02,0.48,5361,2019-04-03 15:52:51:418
5.72,-9.04,2.75,3.77,-11.79,-7.53,0.35,0.02,0.48,5365,2019-04-03 15:52:51:422
5.85,1.67,13.3,3.77,-11.79,-7.53,0.35,0.02,0.48,5369,2019-04-03 15:52:51:426
5.85,1.67,13.3,4.27,0.14,3.39,-0.46,-0.22,0.47,5375,2019-04-03 15:52:51:432
5.85,-2.85,15.56,4.27,0.14,3.39,-0.46,-0.22,0.47,5380,2019-04-03 15:52:51:437
2.39,-2.85,15.56,-2.35,1.16,2.39,-0.02,0.82,0.68,5385,2019-04-03 15:52:51:442
2.39,-2.85,15.56,-2.35,1.16,2.39,-0.02,0.82,0.68,5389,2019-04-03 15:52:51:446
2.39,-2.85,15.56,-2.35,1.16,2.39,-0.02,0.82,0.68,5395,2019-04-03 15:52:51:452
-7.31,3.58,4.18,-2.35,1.16,2.39,0.27,0.14,0.3,5400,2019-04-03 15:52:51:457
-7.31,3.58,4.18,-8.29,2.05,-5.4,0.27,0.14,0.3,5405,2019-04-03 15:52:51:462
-7.31,3.58,4.18,-8.29,2.05,-5.4,0.27,0.14,0.3,5411,2019-04-03 15:52:51:468
-7.31,3.58,4.18,-8.29,2.05,-5.4,0.27,0.14,0.3,5415,2019-04-03 15:52:51:472
1.21,-0.33,5.9,-8.29,2.05,-5.4,-0.46,-0.28,0.06,5420,2019-04-03 15:52:51:477
1.21,-0.33,5.9,0.24,-1.51,-3.98,-0.46,-0.28,0.06,5425,2019-04-03 15:52:51:482
1.21,-0.33,5.9,0.24,-1.51,-3.98,-0.46,-0.28,0.06,5429,2019-04-03 15:52:51:486
1.21,-0.33,5.9,0.24,-1.51,-3.98,-0.46,-0.28,0.06,5435,2019-04-03 15:52:51:492
11.91,-4.09,-15.1,0.24,-1.51,-3.98,0.25,0.3,0.04,5440,2019-04-03 15:52:51:497
11.91,-4.09,-15.1,10.73,-5.1,-23.79,0.25,0.3,0.04,5445,2019-04-03 15:52:51:502
11.91,-4.09,-15.1,10.73,-5.1,-23.79,0.25,0.3,0.04,5450,2019-04-03 15:52:51:507
11.91,-4.09,-15.1,10.73,-5.1,-23.79,0.25,0.3,0.04,5455,2019-04-03 15:52:51:512
-7.23,9.88,-17.27,10.73,-5.1,-23.79,0.25,0.3,0.04,5461,2019-04-03 15:52:51:518
-7.23,9.88,-17.27,-8.26,8.85,-23.53,0.16,0.18,-0.08,5465,2019-04-03 15:52:51:522
-7.23,9.88,-17.27,-8.26,8.85,-23.53,0.16,0.18,-0.08,5471,2019-04-03 15:52:51:528
-7.23,9.88,-17.27,-8.26,8.85,-23.53,0.16,0.18,-0.08,5475,2019-04-03 15:52:51:532
-7.23,9.88,-17.27,-8.26,8.85,-23.53,0.16,0.18,-0.08,5480,2019-04-03 15:52:51:537
-3.09,-0.23,2.1,-4.04,-0.81,-3.12,-0.61,-0.58,-0.28,5485,2019-04-03 15:52:51:542
-3.09,-0.23,2.1,-4.04,-0.81,-3.12,-0.61,-0.58,-0.28,5490,2019-04-03 15:52:51:547
-3.09,-0.23,2.1,-4.04,-0.81,-3.12,-0.61,-0.58,-0.28,5494,2019-04-03 15:52:51:551
-1.81,-3.94,20.55,-4.04,-0.81,-3.12,0.48,0.04,-0.3,5499,2019-04-03 15:52:51:556
-1.81,-3.94,20.55,-2.06,-3.93,15.2,0.48,0.04,-0.3,5505,2019-04-03 15:52:51:562
-1.81,-3.94,20.55,-2.06,-3.93,15.2,0.48,0.04,-0.3,5510,2019-04-03 15:52:51:567
-1.81,-3.94,20.55,-2.06,-3.93,15.2,0.48,0.04,-0.3,5515,2019-04-03 15:52:51:572
-6.71,5.48,10.93,-6.29,5.48,4.96,0.0,0.03,-0.37,5520,2019-04-03 15:52:51:577
-6.71,5.48,10.93,-6.29,5.48,4.96,0.0,0.03,-0.37,5525,2019-04-03 15:52:51:582
-6.71,5.48,10.93,-6.29,5.48,4.96,0.0,0.03,-0.37,5530,2019-04-03 15:52:51:587
-6.71,5.48,10.93,-6.29,5.48,4.96,0.0,0.03,-0.37,5535,2019-04-03 15:52:51:592
8.28,-8.63,16.48,7.87,-8.59,8.96,-0.47,-0.52,-0.48,5540,2019-04-03 15:52:51:597
8.28,-8.63,16.48,7.87,-8.59,8.96,-0.47,-0.52,-0.48,5545,2019-04-03 15:52:51:602
8.28,-8.63,16.48,7.87,-8.59,8.96,-0.47,-0.52,-0.48,5550,2019-04-03 15:52:51:607
8.28,-8.63,16.48,7.87,-8.59,8.96,-0.47,-0.52,-0.48,5556,2019-04-03 15:52:51:613
8.28,-8.63,16.48,7.87,-8.59,8.96,-0.47,-0.52,-0.48,5560,2019-04-03 15:52:51:617
8.28,-8.63,16.48,7.87,-8.59,8.96,-0.47,-0.52,-0.48,5565,2019-04-03 15:52:51:622
0.57,-3.05,3.55,1.08,-3.59,-3.18,0.87,0.71,-0.16,5570,2019-04-03 15:52:51:627
0.57,-3.05,3.55,1.08,-3.59,-3.18,0.87,0.71,-0.16,5575,2019-04-03 15:52:51:632
0.57,-3.05,3.55,1.08,-3.59,-3.18,0.87,0.71,-0.16,5580,2019-04-03 15:52:51:637
-12.51,-0.35,0.82,-13.13,-0.11,-5.41,-0.74,-0.78,-0.29,5587,2019-04-03 15:52:51:644
-12.51,-0.35,0.82,-13.13,-0.11,-5.41,-0.74,-0.78,-0.29,5590,2019-04-03 15:52:51:647
-12.51,-0.35,0.82,-13.13,-0.11,-5.41,-0.74,-0.78,-0.29,5598,2019-04-03 15:52:51:655
-12.51,-0.35,0.82,-13.13,-0.11,-5.41,-0.74,-0.78,-0.29,5601,2019-04-03 15:52:51:658
14.27,-7.02,16.25,12.83,-6.38,9.88,0.02,-0.19,-0.19,5607,2019-04-03 15:52:51:664
14.27,-7.02,16.25,12.83,-6.38,9.88,0.02,-0.19,-0.19,5610,2019-04-03 15:52:51:667
14.27,-7.02,16.25,12.83,-6.38,9.88,0.02,-0.19,-0.19,5616,2019-04-03 15:52:51:673
0.8,4.93,12.85,-0.12,4.8,6.3,0.38,0.79,0.03,5620,2019-04-03 15:52:51:677
0.8,4.93,12.85,-0.12,4.8,6.3,0.38,0.79,0.03,5627,2019-04-03 15:52:51:684
0.8,4.93,12.85,-0.12,4.8,6.3,0.38,0.79,0.03,5630,2019-04-03 15:52:51:687
0.8,4.93,12.85,-0.12,4.8,6.3,0.38,0.79,0.03,5635,2019-04-03 15:52:51:692
-2.41,0.34,5.95,-3.19,0.5,-1.97,-0.66,-0.16,-0.02,5640,2019-04-03 15:52:51:697
-2.41,0.34,5.95,-3.19,0.5,-1.97,-0.66,-0.16,-0.02,5645,2019-04-03 15:52:51:702
-2.41,0.34,5.95,-3.19,0.5,-1.97,-0.66,-0.16,-0.02,5650,2019-04-03 15:52:51:707
-2.41,0.34,5.95,-3.19,0.5,-1.97,-0.66,-0.16,-0.02,5655,2019-04-03 15:52:51:712
6.3,-2.04,12.29,-3.19,0.5,-1.97,-0.66,-0.16,-0.02,5660,2019-04-03 15:52:51:717
6.3,-2.04,12.29,5.08,-1.59,2.14,0.35,-0.16,0.07,5665,2019-04-03 15:52:51:722
6.3,-2.04,12.29,5.08,-1.59,2.14,0.35,-0.16,0.07,5670,2019-04-03 15:52:51:727
6.3,-2.04,12.29,5.08,-1.59,2.14,0.35,-0.16,0.07,5677,2019-04-03 15:52:51:734
6.3,-2.04,12.29,5.08,-1.59,2.14,0.35,-0.16,0.07,5681,2019-04-03 15:52:51:738
6.3,-2.04,12.29,5.08,-1.59,2.14,0.35,-0.16,0.07,5685,2019-04-03 15:52:51:742
4.54,9.11,4.38,5.08,-1.59,2.14,0.27,0.56,0.16,5690,2019-04-03 15:52:51:747
4.54,9.11,4.38,4.03,8.94,-6.02,0.27,0.56,0.16,5694,2019-04-03 15:52:51:751
4.54,9.11,4.38,4.03,8.94,-6.02,0.27,0.56,0.16,5700,2019-04-03 15:52:51:757
4.54,9.11,4.38,4.03,8.94,-6.02,0.27,0.56,0.16,5705,2019-04-03 15:52:51:762
-8.0,-5.41,12.65,4.03,8.94,-6.02,0.27,0.56,0.16,5710,2019-04-03 15:52:51:767
-8.0,-5.41,12.65,-9.0,-4.74,2.03,-0.52,-0.36,0.0,5716,2019-04-03 15:52:51:773
-8.0,-5.41,12.65,-9.0,-4.74,2.03,-0.52,-0.36,0.0,5720,2019-04-03 15:52:51:777
1.43,-3.09,13.13,-9.0,-4.74,2.03,-0.52,-0.36,0.0,5724,2019-04-03 15:52:51:781
1.43,-3.09,13.13,-9.0,-4.74,2.03,-0.52,-0.36,0.0,5730,2019-04-03 15:52:51:787
1.43,-3.09,13.13,-9.0,-4.74,2.03,-0.52,-0.36,0.0,5736,2019-04-03 15:52:51:793
3.48,2.35,11.67,2.44,2.37,1.94,-0.17,-0.15,0.06,5740,2019-04-03 15:52:51:797
3.48,2.35,11.67,2.44,2.37,1.94,-0.17,-0.15,0.06,5745,2019-04-03 15:52:51:802
3.48,2.35,11.67,2.44,2.37,1.94,-0.17,-0.15,0.06,5751,2019-04-03 15:52:51:808
3.48,2.35,11.67,2.44,2.37,1.94,-0.17,-0.15,0.06,5755,2019-04-03 15:52:51:812
3.48,2.35,11.67,2.44,2.37,1.94,-0.17,-0.15,0.06,5760,2019-04-03 15:52:51:817
11.26,-0.27,25.9,9.83,-0.06,15.15,-0.17,0.5,0.13,5770,2019-04-03 15:52:51:827
11.26,-0.27,25.9,9.83,-0.06,15.15,-0.17,0.5,0.13,5770,2019-04-03 15:52:51:827
11.26,-0.27,25.9,9.83,-0.06,15.15,-0.17,0.5,0.13,5775,2019-04-03 15:52:51:832
-13.5,3.42,7.75,-13.54,2.53,-3.52,0.15,0.47,0.17,5781,2019-04-03 15:52:51:838
-13.5,3.42,7.75,-13.54,2.53,-3.52,0.15,0.47,0.17,5788,2019-04-03 15:52:51:845
-13.5,3.42,7.75,-13.54,2.53,-3.52,0.15,0.47,0.17,5790,2019-04-03 15:52:51:847
-13.5,3.42,7.75,-13.54,2.53,-3.52,0.15,0.47,0.17,5797,2019-04-03 15:52:51:854
-4.41,-0.39,6.94,-4.58,-1.39,-4.75,-0.24,-1.03,-0.06,5800,2019-04-03 15:52:51:857
-4.41,-0.39,6.94,-4.58,-1.39,-4.75,-0.24,-1.03,-0.06,5805,2019-04-03 15:52:51:862
-4.41,-0.39,6.94,-4.58,-1.39,-4.75,-0.24,-1.03,-0.06,5811,2019-04-03 15:52:51:868
-4.41,-0.39,6.94,-4.58,-1.39,-4.75,-0.24,-1.03,-0.06,5816,2019-04-03 15:52:51:873
5.78,-4.26,12.12,5.22,-4.45,0.34,-0.07,0.09,0.13,5820,2019-04-03 15:52:51:877
5.78,-4.26,12.12,5.22,-4.45,0.34,-0.07,0.09,0.13,5825,2019-04-03 15:52:51:882
5.78,-4.26,12.12,5.22,-4.45,0.34,-0.07,0.09,0.13,5830,2019-04-03 15:52:51:887
5.78,-4.26,12.12,5.22,-4.45,0.34,-0.07,0.09,0.13,5835,2019-04-03 15:52:51:892
0.56,-2.04,9.55,0.32,-2.4,-1.69,0.05,0.48,0.12,5840,2019-04-03 15:52:51:897
0.56,-2.04,9.55,0.32,-2.4,-1.69,0.05,0.48,0.12,5846,2019-04-03 15:52:51:903
0.56,-2.04,9.55,0.32,-2.4,-1.69,0.05,0.48,0.12,5850,2019-04-03 15:52:51:907
0.56,-2.04,9.55,0.32,-2.4,-1.69,0.05,0.48,0.12,5856,2019-04-03 15:52:51:913
-5.79,5.37,8.71,0.32,-2.4,-1.69,-0.11,-0.04,0.04,5861,2019-04-03 15:52:51:918
-5.79,5.37,8.71,-5.09,4.72,-2.43,-0.11,-0.04,0.04,5867,2019-04-03 15:52:51:924
-5.79,5.37,8.71,-5.09,4.72,-2.43,-0.11,-0.04,0.04,5870,2019-04-03 15:52:51:927
-5.79,5.37,8.71,-5.09,4.72,-2.43,-0.11,-0.04,0.04,5875,2019-04-03 15:52:51:932
-5.79,5.37,8.71,-5.09,4.72,-2.43,-0.11,-0.04,0.04,5880,2019-04-03 15:52:51:937
-5.79,5.37,8.71,-5.09,4.72,-2.43,-0.11,-0.04,0.04,5885,2019-04-03 15:52:51:942
-1.39,-1.19,7.2,-1.46,-1.66,-4.71,0.17,-0.43,-0.09,5890,2019-04-03 15:52:51:947
-1.39,-1.19,7.2,-1.46,-1.66,-4.71,0.17,-0.43,-0.09,5895,2019-04-03 15:52:51:952
-1.39,-1.19,7.2,-1.46,-1.66,-4.71,-0.02,-0.57,-0.19,5900,2019-04-03 15:52:51:957
-1.39,-1.19,7.2,-1.46,-1.66,-4.71,-0.02,-0.57,-0.19,5905,2019-04-03 15:52:51:962
-1.39,-1.19,7.2,-1.46,-1.66,-4.71,-0.02,-0.57,-0.19,5911,2019-04-03 15:52:51:968
-1.39,-1.19,7.2,-1.46,-1.66,-4.71,-0.02,-0.57,-0.19,5916,2019-04-03 15:52:51:973
-5.38,0.34,2.62,-5.15,0.23,-7.78,0.11,0.31,0.0,5919,2019-04-03 15:52:51:976
-5.38,0.34,2.62,-5.15,0.23,-7.78,0.11,0.31,0.0,5925,2019-04-03 15:52:51:982
-5.38,0.34,2.62,-5.15,0.23,-7.78,0.11,0.31,0.0,5932,2019-04-03 15:52:51:989
-5.38,0.34,2.62,-5.15,0.23,-7.78,0.11,0.31,0.0,5935,2019-04-03 15:52:51:992
3.2,-0.46,16.86,3.05,-0.67,6.1,0.1,-0.39,-0.04,5940,2019-04-03 15:52:51:997
3.2,-0.46,16.86,3.05,-0.67,6.1,0.1,-0.39,-0.04,5946,2019-04-03 15:52:52:003
3.2,-0.46,16.86,3.05,-0.67,6.1,0.1,-0.39,-0.04,5951,2019-04-03 15:52:52:008
3.2,-0.46,16.86,3.05,-0.67,6.1,0.1,-0.39,-0.04,5955,2019-04-03 15:52:52:012
1.69,-0.4,9.52,3.05,-0.67,6.1,0.14,0.43,0.07,5960,2019-04-03 15:52:52:017
1.69,-0.4,9.52,1.81,-0.61,-0.78,0.14,0.43,0.07,5967,2019-04-03 15:52:52:024
1.69,-0.4,9.52,1.81,-0.61,-0.78,0.14,0.43,0.07,5971,2019-04-03 15:52:52:028
1.69,-0.4,9.52,1.81,-0.61,-0.78,0.14,0.43,0.07,5976,2019-04-03 15:52:52:033
1.69,-0.4,9.52,1.81,-0.61,-0.78,0.14,0.43,0.07,5980,2019-04-03 15:52:52:037
1.69,-0.4,9.52,1.81,-0.61,-0.78,0.14,0.43,0.07,5985,2019-04-03 15:52:52:042
0.81,0.89,1.52,1.81,-0.61,-0.78,-0.19,-0.12,-0.09,5990,2019-04-03 15:52:52:047
0.81,0.89,1.52,-0.13,1.16,-7.97,-0.19,-0.12,-0.09,5995,2019-04-03 15:52:52:052
0.81,0.89,1.52,-0.13,1.16,-7.97,0.1,-0.22,-0.07,6001,2019-04-03 15:52:52:058
0.81,0.89,1.52,-0.13,1.16,-7.97,0.1,-0.22,-0.07,6005,2019-04-03 15:52:52:062
0.81,0.89,1.52,-0.13,1.16,-7.97,0.1,-0.22,-0.07,6010,2019-04-03 15:52:52:067
0.81,0.89,1.52,-0.13,1.16,-7.97,0.1,-0.22,-0.07,6016,2019-04-03 15:52:52:073
4.32,0.56,19.07,3.88,0.76,9.96,-0.05,0.21,0.0,6020,2019-04-03 15:52:52:077
4.32,0.56,19.07,3.88,0.76,9.96,-0.05,0.21,0.0,6025,2019-04-03 15:52:52:082
4.32,0.56,19.07,3.88,0.76,9.96,-0.05,0.21,0.0,6032,2019-04-03 15:52:52:089
4.32,0.56,19.07,3.88,0.76,9.96,-0.05,0.21,0.0,6035,2019-04-03 15:52:52:092
-1.77,2.41,18.71,-2.4,2.22,8.56,0.01,0.15,0.0,6040,2019-04-03 15:52:52:097
-1.77,2.41,18.71,-2.4,2.22,8.56,0.01,0.15,0.0,6046,2019-04-03 15:52:52:103
-1.77,2.41,18.71,-2.4,2.22,8.56,0.01,0.15,0.0,6051,2019-04-03 15:52:52:108
-1.77,2.41,18.71,-2.4,2.22,8.56,0.01,0.15,0.0,6055,2019-04-03 15:52:52:112
-1.77,2.41,18.71,-2.4,2.22,8.56,0.01,0.15,0.0,6060,2019-04-03 15:52:52:117
-1.77,2.41,18.71,-2.4,2.22,8.56,0.01,0.15,0.0,6067,2019-04-03 15:52:52:124
1.1,0.93,9.2,0.18,0.95,-0.79,-0.13,-0.14,-0.04,6070,2019-04-03 15:52:52:127
1.1,0.93,9.2,0.18,0.95,-0.79,-0.13,-0.14,-0.04,6075,2019-04-03 15:52:52:132
1.73,-1.65,9.35,1.2,-1.26,0.05,0.08,0.16,-0.08,6087,2019-04-03 15:52:52:144
1.73,-1.65,9.35,1.2,-1.26,0.05,0.08,0.16,-0.08,6100,2019-04-03 15:52:52:157
1.73,-1.65,9.35,1.2,-1.26,0.05,0.08,0.16,-0.08,6103,2019-04-03 15:52:52:160
1.73,-1.65,9.35,1.2,-1.26,0.05,0.08,0.16,-0.08,6103,2019-04-03 15:52:52:160
1.73,-1.65,9.35,1.2,-1.26,0.05,0.08,0.16,-0.08,6103,2019-04-03 15:52:52:160
1.73,-1.65,9.35,1.2,-1.26,0.05,0.08,0.16,-0.08,6105,2019-04-03 15:52:52:162
10.63,-0.26,18.88,9.64,-0.79,8.67,-0.21,-0.02,-0.21,6122,2019-04-03 15:52:52:179
10.63,-0.26,18.88,9.64,-0.79,8.67,-0.21,-0.02,-0.21,6122,2019-04-03 15:52:52:179
10.63,-0.26,18.88,9.64,-0.79,8.67,-0.21,-0.02,-0.21,6123,2019-04-03 15:52:52:180
10.63,-0.26,18.88,9.64,-0.79,8.67,-0.21,-0.02,-0.21,6124,2019-04-03 15:52:52:181
10.63,-0.26,18.88,9.64,-0.79,8.67,-0.21,-0.02,-0.21,6130,2019-04-03 15:52:52:187
10.63,-0.26,18.88,9.64,-0.79,8.67,-0.21,-0.02,-0.21,6137,2019-04-03 15:52:52:194
-10.35,8.95,12.46,9.64,-0.79,8.67,0.04,0.69,-0.02,6140,2019-04-03 15:52:52:197
-10.35,8.95,12.46,-9.89,7.85,2.34,0.04,0.69,-0.02,6145,2019-04-03 15:52:52:202
-10.35,8.95,12.46,-9.89,7.85,2.34,0.04,0.69,-0.02,6153,2019-04-03 15:52:52:210
-10.35,8.95,12.46,-9.89,7.85,2.34,0.04,0.69,-0.02,6154,2019-04-03 15:52:52:211
-10.35,8.95,12.46,-9.89,7.85,2.34,0.04,0.69,-0.02,6161,2019-04-03 15:52:52:218
-10.27,-1.25,3.47,-10.65,-2.15,-6.74,-0.47,-1.05,-0.39,6166,2019-04-03 15:52:52:223
-10.27,-1.25,3.47,-10.65,-2.15,-6.74,-0.47,-1.05,-0.39,6170,2019-04-03 15:52:52:227
-10.27,-1.25,3.47,-10.65,-2.15,-6.74,-0.47,-1.05,-0.39,6176,2019-04-03 15:52:52:233
-10.27,-1.25,3.47,-10.65,-2.15,-6.74,-0.47,-1.05,-0.39,6180,2019-04-03 15:52:52:237
13.79,-4.04,16.87,13.07,-5.01,6.02,0.15,-0.27,-0.3,6186,2019-04-03 15:52:52:243
13.79,-4.04,16.87,13.07,-5.01,6.02,0.15,-0.27,-0.3,6191,2019-04-03 15:52:52:248
13.79,-4.04,16.87,13.07,-5.01,6.02,0.15,-0.27,-0.3,6194,2019-04-03 15:52:52:251
7.02,0.94,13.06,13.07,-5.01,6.02,0.02,0.98,-0.08,6201,2019-04-03 15:52:52:258
7.02,0.94,13.06,6.87,-0.07,2.29,0.02,0.98,-0.08,6205,2019-04-03 15:52:52:262
7.02,0.94,13.06,6.87,-0.07,2.29,0.02,0.98,-0.08,6211,2019-04-03 15:52:52:268
7.02,0.94,13.06,6.87,-0.07,2.29,0.02,0.98,-0.08,6216,2019-04-03 15:52:52:273
7.02,0.94,13.06,6.87,-0.07,2.29,0.02,0.98,-0.08,6220,2019-04-03 15:52:52:277
7.02,0.94,13.06,6.87,-0.07,2.29,0.02,0.98,-0.08,6225,2019-04-03 15:52:52:282
-5.91,6.35,8.35,6.87,-0.07,2.29,0.02,0.98,-0.08,6230,2019-04-03 15:52:52:287
-5.91,6.35,8.35,-6.14,4.85,-1.62,-0.35,0.09,-0.19,6235,2019-04-03 15:52:52:292
-5.91,6.35,8.35,-6.14,4.85,-1.62,-0.35,0.09,-0.19,6240,2019-04-03 15:52:52:297
-5.91,6.35,8.35,-6.14,4.85,-1.62,-0.35,0.09,-0.19,6245,2019-04-03 15:52:52:302
-5.91,6.35,8.35,-6.14,4.85,-1.62,-0.35,0.09,-0.19,6251,2019-04-03 15:52:52:308
-5.91,6.35,8.35,-6.14,4.85,-1.62,-0.35,0.09,-0.19,6255,2019-04-03 15:52:52:312
-5.91,6.35,8.35,-6.14,4.85,-1.62,-0.35,0.09,-0.19,6260,2019-04-03 15:52:52:317
19.23,-1.09,24.39,18.0,-2.26,14.43,0.06,-0.34,-0.18,6268,2019-04-03 15:52:52:325
19.23,-1.09,24.39,18.0,-2.26,14.43,0.06,-0.34,-0.18,6271,2019-04-03 15:52:52:328
19.23,-1.09,24.39,18.0,-2.26,14.43,0.06,-0.34,-0.18,6278,2019-04-03 15:52:52:335
19.23,-1.09,24.39,18.0,-2.26,14.43,0.06,-0.34,-0.18,6280,2019-04-03 15:52:52:337
19.23,-1.09,24.39,18.0,-2.26,14.43,0.06,-0.34,-0.18,6284,2019-04-03 15:52:52:341
3.35,3.27,13.34,2.8,2.01,2.78,-0.22,1.32,0.27,6290,2019-04-03 15:52:52:347
3.35,3.27,13.34,2.8,2.01,2.78,-0.22,1.32,0.27,6297,2019-04-03 15:52:52:354
3.35,3.27,13.34,2.8,2.01,2.78,-0.22,1.32,0.27,6300,2019-04-03 15:52:52:357
3.35,3.27,13.34,2.8,2.01,2.78,-0.22,1.32,0.27,6305,2019-04-03 15:52:52:362
-7.72,-1.08,1.21,-8.56,-2.29,-9.33,-0.14,-0.43,-0.03,6311,2019-04-03 15:52:52:368
-7.72,-1.08,1.21,-8.56,-2.29,-9.33,-0.14,-0.43,-0.03,6317,2019-04-03 15:52:52:374
-7.72,-1.08,1.21,-8.56,-2.29,-9.33,-0.14,-0.43,-0.03,6320,2019-04-03 15:52:52:377
0.04,0.24,7.61,-2.64,1.17,-1.97,0.02,-0.58,0.09,6325,2019-04-03 15:52:52:382
0.04,0.24,7.61,-2.64,1.17,-1.97,0.02,-0.58,0.09,6330,2019-04-03 15:52:52:387
0.04,0.24,7.61,-2.64,1.17,-1.97,0.02,-0.58,0.09,6335,2019-04-03 15:52:52:392
4.66,3.77,21.54,2.91,3.25,11.22,-0.03,0.17,0.29,6340,2019-04-03 15:52:52:397
4.66,3.77,21.54,2.91,3.25,11.22,-0.03,0.17,0.29,6344,2019-04-03 15:52:52:401
4.66,3.77,21.54,2.91,3.25,11.22,-0.03,0.17,0.29,6350,2019-04-03 15:52:52:407
4.66,3.77,21.54,2.91,3.25,11.22,-0.03,0.17,0.29,6356,2019-04-03 15:52:52:413
-19.01,16.31,21.25,2.91,3.25,11.22,0.11,0.15,0.31,6360,2019-04-03 15:52:52:417
-19.01,16.31,21.25,-19.28,14.07,10.13,0.11,0.15,0.31,6368,2019-04-03 15:52:52:425
-19.01,16.31,21.25,-19.28,14.07,10.13,0.11,0.15,0.31,6370,2019-04-03 15:52:52:427
-19.01,16.31,21.25,-19.28,14.07,10.13,0.11,0.15,0.31,6375,2019-04-03 15:52:52:432
-19.01,16.31,21.25,-19.28,14.07,10.13,0.11,0.15,0.31,6383,2019-04-03 15:52:52:440
-19.01,16.31,21.25,-19.28,14.07,10.13,0.11,0.15,0.31,6384,2019-04-03 15:52:52:441
2.11,7.25,0.35,1.61,4.11,-10.95,-0.2,-1.11,-0.02,6390,2019-04-03 15:52:52:447
2.11,7.25,0.35,1.61,4.11,-10.95,-0.2,-1.11,-0.02,6396,2019-04-03 15:52:52:453
2.11,7.25,0.35,1.61,4.11,-10.95,-0.2,-1.11,-0.02,6400,2019-04-03 15:52:52:457
2.11,7.25,0.35,1.61,4.11,-10.95,-0.2,-1.11,-0.02,6405,2019-04-03 15:52:52:462
6.69,-4.23,16.03,1.61,4.11,-10.95,-0.2,-1.11,-0.02,6410,2019-04-03 15:52:52:467
6.69,-4.23,16.03,6.04,-7.24,3.99,0.3,0.43,0.3,6417,2019-04-03 15:52:52:474
1.46,-1.25,12.22,6.04,-7.24,3.99,0.3,0.43,0.3,6420,2019-04-03 15:52:52:477
1.46,-1.25,12.22,6.04,-7.24,3.99,0.3,0.43,0.3,6425,2019-04-03 15:52:52:482
1.46,-1.25,12.22,6.04,-7.24,3.99,0.3,0.43,0.3,6430,2019-04-03 15:52:52:487
1.46,-1.25,12.22,6.04,-7.24,3.99,0.3,0.43,0.3,6435,2019-04-03 15:52:52:492
-6.64,1.74,4.21,-6.49,-0.56,-8.19,-0.14,-0.3,-0.17,6440,2019-04-03 15:52:52:497
-6.64,1.74,4.21,-6.49,-0.56,-8.19,-0.14,-0.3,-0.17,6445,2019-04-03 15:52:52:502
-6.64,1.74,4.21,-6.49,-0.56,-8.19,-0.14,-0.3,-0.17,6450,2019-04-03 15:52:52:507
-6.64,1.74,4.21,-6.49,-0.56,-8.19,-0.14,-0.3,-0.17,6455,2019-04-03 15:52:52:512
-6.64,1.74,4.21,-6.49,-0.56,-8.19,-0.14,-0.3,-0.17,6462,2019-04-03 15:52:52:519
11.3,10.19,16.05,11.75,7.13,3.82,0.15,-0.3,-0.31,6465,2019-04-03 15:52:52:522
11.3,10.19,16.05,11.75,7.13,3.82,0.15,-0.3,-0.31,6470,2019-04-03 15:52:52:527
11.3,10.19,16.05,11.75,7.13,3.82,0.15,-0.3,-0.31,6475,2019-04-03 15:52:52:532
23.3,1.1,19.08,23.0,-2.15,7.3,0.22,1.11,-0.09,6480,2019-04-03 15:52:52:537
23.3,1.1,19.08,23.0,-2.15,7.3,0.22,1.11,-0.09,6485,2019-04-03 15:52:52:542
23.3,1.1,19.08,23.0,-2.15,7.3,0.22,1.11,-0.09,6490,2019-04-03 15:52:52:547
23.3,1.1,19.08,23.0,-2.15,7.3,0.22,1.11,-0.09,6496,2019-04-03 15:52:52:553
23.3,1.1,19.08,23.0,-2.15,7.3,0.22,1.11,-0.09,6501,2019-04-03 15:52:52:558
23.3,1.1,19.08,23.0,-2.15,7.3,0.22,1.11,-0.09,6504,2019-04-03 15:52:52:561
-16.21,0.66,-8.04,23.0,-2.15,7.3,0.22,1.11,-0.09,6511,2019-04-03 15:52:52:568
-16.21,0.66,-8.04,-16.01,-2.33,-19.56,-0.26,0.4,-0.19,6515,2019-04-03 15:52:52:572
-16.21,0.66,-8.04,-16.01,-2.33,-19.56,-0.26,0.4,-0.19,6520,2019-04-03 15:52:52:577
9.43,-3.72,15.25,-16.01,-2.33,-19.56,-0.26,0.4,-0.19,6525,2019-04-03 15:52:52:582
9.43,-3.72,15.25,-16.01,-2.33,-19.56,-0.26,0.4,-0.19,6532,2019-04-03 15:52:52:589
9.43,-3.72,15.25,-16.01,-2.33,-19.56,-0.26,0.4,-0.19,6536,2019-04-03 15:52:52:593
-6.21,6.74,4.96,-6.2,3.82,-5.68,0.03,-0.31,-0.26,6540,2019-04-03 15:52:52:597
-6.21,6.74,4.96,-6.2,3.82,-5.68,0.03,-0.31,-0.26,6546,2019-04-03 15:52:52:603
-6.21,6.74,4.96,-6.2,3.82,-5.68,0.03,-0.31,-0.26,6550,2019-04-03 15:52:52:607
-6.21,6.74,4.96,-6.2,3.82,-5.68,0.03,-0.31,-0.26,6555,2019-04-03 15:52:52:612
-6.21,6.74,4.96,-6.2,3.82,-5.68,0.03,-0.31,-0.26,6562,2019-04-03 15:52:52:619
4.67,-1.5,-1.05,3.03,-2.88,-10.35,-0.29,-0.45,-0.32,6567,2019-04-03 15:52:52:624
4.67,-1.5,-1.05,3.03,-2.88,-10.35,-0.29,-0.45,-0.32,6571,2019-04-03 15:52:52:628
4.67,-1.5,-1.05,3.03,-2.88,-10.35,-0.29,-0.45,-0.32,6580,2019-04-03 15:52:52:637
4.67,-1.5,-1.05,3.03,-2.88,-10.35,-0.29,-0.45,-0.32,6582,2019-04-03 15:52:52:639
23.92,-5.53,20.87,22.79,-6.04,12.57,0.5,0.77,-0.16,6585,2019-04-03 15:52:52:642
23.92,-5.53,20.87,22.79,-6.04,12.57,0.5,0.77,-0.16,6591,2019-04-03 15:52:52:648
23.92,-5.53,20.87,22.79,-6.04,12.57,0.5,0.77,-0.16,6594,2019-04-03 15:52:52:651
-12.85,2.73,2.75,22.79,-6.04,12.57,0.5,0.77,-0.16,6599,2019-04-03 15:52:52:656
-12.85,2.73,2.75,-13.26,2.43,-5.05,-0.25,0.84,-0.01,6605,2019-04-03 15:52:52:662
-12.85,2.73,2.75,-13.26,2.43,-5.05,-0.25,0.84,-0.01,6610,2019-04-03 15:52:52:667
-12.85,2.73,2.75,-13.26,2.43,-5.05,-0.25,0.84,-0.01,6616,2019-04-03 15:52:52:673
-5.14,0.44,9.46,-6.56,-0.45,1.75,-0.03,-1.1,-0.38,6620,2019-04-03 15:52:52:677
-5.14,0.44,9.46,-6.56,-0.45,1.75,-0.03,-1.1,-0.38,6625,2019-04-03 15:52:52:682
-5.14,0.44,9.46,-6.56,-0.45,1.75,-0.03,-1.1,-0.38,6630,2019-04-03 15:52:52:687
-5.14,0.44,9.46,-6.56,-0.45,1.75,-0.03,-1.1,-0.38,6636,2019-04-03 15:52:52:693
1.1,1.79,12.09,-0.81,0.78,3.84,0.17,-0.27,-0.12,6640,2019-04-03 15:52:52:697
1.1,1.79,12.09,-0.81,0.78,3.84,0.17,-0.27,-0.12,6647,2019-04-03 15:52:52:704
1.1,1.79,12.09,-0.81,0.78,3.84,0.17,-0.27,-0.12,6651,2019-04-03 15:52:52:708
1.1,1.79,12.09,-0.81,0.78,3.84,0.17,-0.27,-0.12,6656,2019-04-03 15:52:52:713
1.1,1.79,12.09,-0.81,0.78,3.84,0.17,-0.27,-0.12,6661,2019-04-03 15:52:52:718
9.0,1.18,18.59,7.6,0.71,10.93,-0.24,0.34,-0.02,6665,2019-04-03 15:52:52:722
9.0,1.18,18.59,7.6,0.71,10.93,-0.24,0.34,-0.02,6670,2019-04-03 15:52:52:727
9.0,1.18,18.59,7.6,0.71,10.93,-0.24,0.34,-0.02,6677,2019-04-03 15:52:52:734
9.0,1.18,18.59,7.6,0.71,10.93,-0.24,0.34,-0.02,6681,2019-04-03 15:52:52:738
-11.03,2.96,4.95,-11.83,2.32,-2.94,-0.02,0.31,0.06,6686,2019-04-03 15:52:52:743
-11.03,2.96,4.95,-11.83,2.32,-2.94,-0.02,0.31,0.06,6690,2019-04-03 15:52:52:747
-11.03,2.96,4.95,-11.83,2.32,-2.94,-0.02,0.31,0.06,6695,2019-04-03 15:52:52:752
-3.13,-0.86,10.15,-4.85,-1.61,1.14,0.0,-0.74,-0.16,6700,2019-04-03 15:52:52:757
-3.13,-0.86,10.15,-4.85,-1.61,1.14,0.0,-0.74,-0.16,6706,2019-04-03 15:52:52:763
-3.13,-0.86,10.15,-4.85,-1.61,1.14,0.0,-0.74,-0.16,6711,2019-04-03 15:52:52:768
-3.13,-0.86,10.15,-4.85,-1.61,1.14,0.0,-0.74,-0.16,6717,2019-04-03 15:52:52:774
5.69,-4.08,11.39,4.32,-4.63,1.98,0.04,0.07,0.05,6721,2019-04-03 15:52:52:778
5.69,-4.08,11.39,4.32,-4.63,1.98,0.04,0.07,0.05,6727,2019-04-03 15:52:52:784
5.69,-4.08,11.39,4.32,-4.63,1.98,0.04,0.07,0.05,6730,2019-04-03 15:52:52:787
2.65,-1.73,9.96,4.32,-4.63,1.98,0.12,-0.23,-0.08,6735,2019-04-03 15:52:52:792
2.65,-1.73,9.96,4.32,-4.63,1.98,0.12,-0.23,-0.08,6740,2019-04-03 15:52:52:797
2.65,-1.73,9.96,4.32,-4.63,1.98,0.12,-0.23,-0.08,6746,2019-04-03 15:52:52:803
2.65,-1.73,9.96,4.32,-4.63,1.98,0.12,-0.23,-0.08,6750,2019-04-03 15:52:52:807
2.65,-1.73,9.96,4.32,-4.63,1.98,0.12,-0.23,-0.08,6756,2019-04-03 15:52:52:813
-9.28,5.93,7.63,-9.48,5.14,-1.42,-0.26,-0.09,0.02,6761,2019-04-03 15:52:52:818
-9.28,5.93,7.63,-9.48,5.14,-1.42,-0.26,-0.09,0.02,6766,2019-04-03 15:52:52:823
-9.28,5.93,7.63,-9.48,5.14,-1.42,-0.26,-0.09,0.02,6770,2019-04-03 15:52:52:827
-9.28,5.93,7.63,-9.48,5.14,-1.42,-0.26,-0.09,0.02,6775,2019-04-03 15:52:52:832
-9.28,5.93,7.63,-9.48,5.14,-1.42,-0.26,-0.09,0.02,6781,2019-04-03 15:52:52:838
-9.28,5.93,7.63,-9.48,5.14,-1.42,-0.26,-0.09,0.02,6785,2019-04-03 15:52:52:842
-9.28,5.93,7.63,-9.48,5.14,-1.42,-0.26,-0.09,0.02,6789,2019-04-03 15:52:52:846
-9.28,5.93,7.63,-9.48,5.14,-1.42,-0.26,-0.09,0.02,6796,2019-04-03 15:52:52:853
16.86,-0.68,12.69,15.29,-2.32,3.19,0.1,0.63,0.15,6800,2019-04-03 15:52:52:857
16.86,-0.68,12.69,15.29,-2.32,3.19,0.1,0.63,0.15,6805,2019-04-03 15:52:52:862
16.86,-0.68,12.69,15.29,-2.32,3.19,0.1,0.63,0.15,6810,2019-04-03 15:52:52:867
16.86,-0.68,12.69,15.29,-2.32,3.19,0.1,0.63,0.15,6817,2019-04-03 15:52:52:874
-8.67,-4.59,7.24,-9.45,-5.63,-1.73,-0.09,0.57,0.08,6827,2019-04-03 15:52:52:884
-8.67,-4.59,7.24,-9.45,-5.63,-1.73,-0.09,0.57,0.08,6828,2019-04-03 15:52:52:885
-8.67,-4.59,7.24,-9.45,-5.63,-1.73,-0.09,0.57,0.08,6836,2019-04-03 15:52:52:893
-8.67,-4.59,7.24,-9.45,-5.63,-1.73,-0.09,0.57,0.08,6840,2019-04-03 15:52:52:897
0.06,-1.11,6.81,-0.78,-1.82,-1.5,0.0,-0.6,-0.14,6841,2019-04-03 15:52:52:898
0.06,-1.11,6.81,-0.78,-1.82,-1.5,0.0,-0.6,-0.14,6845,2019-04-03 15:52:52:902
0.06,-1.11,6.81,-0.78,-1.82,-1.5,0.0,-0.6,-0.14,6850,2019-04-03 15:52:52:907
0.06,-1.11,6.81,-0.78,-1.82,-1.5,0.0,-0.6,-0.14,6855,2019-04-03 15:52:52:912
6.72,0.71,16.34,5.74,-0.07,7.64,0.3,0.21,0.02,6860,2019-04-03 15:52:52:917
6.72,0.71,16.34,5.74,-0.07,7.64,0.3,0.21,0.02,6867,2019-04-03 15:52:52:924
6.72,0.71,16.34,5.74,-0.07,7.64,0.16,0.08,0.18,6871,2019-04-03 15:52:52:928
6.72,0.71,16.34,6.12,-2.08,7.13,0.16,0.08,0.18,6875,2019-04-03 15:52:52:932
6.72,0.71,16.34,6.12,-2.08,7.13,0.16,0.08,0.18,6880,2019-04-03 15:52:52:937
6.72,0.71,16.34,6.12,-2.08,7.13,0.16,0.08,0.18,6885,2019-04-03 15:52:52:942
6.72,0.71,16.34,6.12,-2.08,7.13,0.16,0.08,0.18,6890,2019-04-03 15:52:52:947
6.72,0.71,16.34,6.12,-2.08,7.13,0.16,0.08,0.18,6895,2019-04-03 15:52:52:952
-2.34,-4.34,9.65,-3.3,-4.83,0.97,-0.01,-0.64,-0.06,6900,2019-04-03 15:52:52:957
-2.34,-4.34,9.65,-3.3,-4.83,0.97,-0.01,-0.64,-0.06,6905,2019-04-03 15:52:52:962
-2.34,-4.34,9.65,-3.3,-4.83,0.97,-0.01,-0.64,-0.06,6910,2019-04-03 15:52:52:967
3.81,2.45,14.41,4.11,-2.12,4.85,0.54,0.26,0.04,6916,2019-04-03 15:52:52:973
3.81,2.45,14.41,4.11,-2.12,4.85,0.54,0.26,0.04,6921,2019-04-03 15:52:52:978
3.81,2.45,14.41,4.11,-2.12,4.85,0.54,0.26,0.04,6925,2019-04-03 15:52:52:982
3.81,2.45,14.41,4.11,-2.12,4.85,0.54,0.26,0.04,6930,2019-04-03 15:52:52:987
-1.12,2.95,7.22,-1.95,2.02,-2.31,0.25,0.03,-0.02,6937,2019-04-03 15:52:52:994
-1.12,2.95,7.22,-1.95,2.02,-2.31,0.25,0.03,-0.02,6940,2019-04-03 15:52:52:997
-1.12,2.95,7.22,-1.95,2.02,-2.31,0.25,0.03,-0.02,6945,2019-04-03 15:52:53:002
-1.12,2.95,7.22,-1.95,2.02,-2.31,0.25,0.03,-0.02,6951,2019-04-03 15:52:53:008
-1.12,2.95,7.22,-1.95,2.02,-2.31,0.25,0.03,-0.02,6956,2019-04-03 15:52:53:013
-3.1,-5.98,19.38,-4.29,-6.29,9.34,-0.05,-0.14,0.07,6961,2019-04-03 15:52:53:018
-3.1,-5.98,19.38,-4.29,-6.29,9.34,-0.05,-0.14,0.07,6965,2019-04-03 15:52:53:022
-3.1,-5.98,19.38,-4.29,-6.29,9.34,0.76,0.0,0.02,6970,2019-04-03 15:52:53:027
-3.1,-5.98,19.38,-4.29,-6.29,9.34,0.76,0.0,0.02,6975,2019-04-03 15:52:53:032
-3.1,-5.98,19.38,-4.29,-6.29,9.34,0.76,0.0,0.02,6985,2019-04-03 15:52:53:042
-3.1,-5.98,19.38,-4.29,-6.29,9.34,0.76,0.0,0.02,6986,2019-04-03 15:52:53:043
3.17,3.07,2.86,2.75,2.79,-7.05,0.03,-0.43,-0.2,6996,2019-04-03 15:52:53:053
3.17,3.07,2.86,2.75,2.79,-7.05,0.03,-0.43,-0.2,6998,2019-04-03 15:52:53:055
3.17,3.07,2.86,2.75,2.79,-7.05,0.03,-0.43,-0.2,7000,2019-04-03 15:52:53:057
3.17,3.07,2.86,2.75,2.79,-7.05,0.03,-0.43,-0.2,7005,2019-04-03 15:52:53:062
2.09,-3.82,12.74,1.29,-4.29,2.53,0.0,0.21,-0.06,7024,2019-04-03 15:52:53:081
2.09,-3.82,12.74,1.29,-4.29,2.53,0.0,0.21,-0.06,7025,2019-04-03 15:52:53:082
2.09,-3.82,12.74,1.29,-4.29,2.53,0.0,0.21,-0.06,7025,2019-04-03 15:52:53:082
2.09,-3.82,12.74,1.29,-4.29,2.53,0.0,0.21,-0.06,7028,2019-04-03 15:52:53:085
2.09,-3.82,12.74,1.29,-4.29,2.53,0.0,0.21,-0.06,7031,2019-04-03 15:52:53:088
2.09,-3.82,12.74,1.29,-4.29,2.53,0.0,0.21,-0.06,7040,2019-04-03 15:52:53:097
2.09,-3.82,12.74,1.29,-4.29,2.53,0.0,0.21,-0.06,7041,2019-04-03 15:52:53:098
-0.81,-0.69,9.58,-1.24,-1.45,-0.96,0.47,0.14,-0.03,7045,2019-04-03 15:52:53:102
-0.81,-0.69,9.58,-1.24,-1.45,-0.96,0.47,0.14,-0.03,7050,2019-04-03 15:52:53:107
-0.81,-0.69,9.58,-1.24,-1.45,-0.96,0.47,0.14,-0.03,7055,2019-04-03 15:52:53:112
2.92,3.74,9.34,2.68,3.12,-0.93,-0.08,0.05,-0.02,7063,2019-04-03 15:52:53:120
2.92,3.74,9.34,2.68,3.12,-0.93,-0.08,0.05,-0.02,7066,2019-04-03 15:52:53:123
2.92,3.74,9.34,2.68,3.12,-0.93,-0.08,0.05,-0.02,7070,2019-04-03 15:52:53:127
2.92,3.74,9.34,2.68,3.12,-0.93,-0.08,0.05,-0.02,7075,2019-04-03 15:52:53:132
-6.03,-2.84,8.27,-6.44,-3.04,-2.06,-0.15,0.09,0.0,7082,2019-04-03 15:52:53:139
-6.03,-2.84,8.27,-6.44,-3.04,-2.06,-0.15,0.09,0.0,7086,2019-04-03 15:52:53:143
-6.03,-2.84,8.27,-6.44,-3.04,-2.06,-0.31,0.26,0.01,7090,2019-04-03 15:52:53:147
-6.03,-2.84,8.27,-6.44,-3.04,-2.06,-0.31,0.26,0.01,7094,2019-04-03 15:52:53:151
-6.03,-2.84,8.27,-6.44,-3.04,-2.06,-0.31,0.26,0.01,7100,2019-04-03 15:52:53:157
-6.03,-2.84,8.27,-6.44,-3.04,-2.06,-0.31,0.26,0.01,7105,2019-04-03 15:52:53:162
-6.03,-2.84,8.27,-6.44,-3.04,-2.06,-0.31,0.26,0.01,7110,2019-04-03 15:52:53:167
2.21,2.05,7.5,1.29,1.74,-1.89,-0.45,0.23,0.13,7117,2019-04-03 15:52:53:174
2.21,2.05,7.5,1.29,1.74,-1.89,-0.45,0.23,0.13,7120,2019-04-03 15:52:53:177
2.21,2.05,7.5,1.29,1.74,-1.89,-0.45,0.23,0.13,7127,2019-04-03 15:52:53:184
1.45,-2.1,9.8,0.62,-2.05,0.66,-0.39,0.24,0.13,7131,2019-04-03 15:52:53:188
1.45,-2.1,9.8,0.62,-2.05,0.66,-0.39,0.24,0.13,7135,2019-04-03 15:52:53:192
1.45,-2.1,9.8,0.62,-2.05,0.66,-0.39,0.24,0.13,7140,2019-04-03 15:52:53:197
1.45,-2.1,9.8,0.62,-2.05,0.66,-0.39,0.24,0.13,7144,2019-04-03 15:52:53:201
-0.34,-3.84,9.88,-1.09,-4.08,0.77,-0.44,0.19,0.13,7150,2019-04-03 15:52:53:207
-0.34,-3.84,9.88,-1.09,-4.08,0.77,-0.44,0.19,0.13,7155,2019-04-03 15:52:53:212
-0.34,-3.84,9.88,-1.09,-4.08,0.77,-0.44,0.19,0.13,7160,2019-04-03 15:52:53:217
-0.34,-3.84,9.88,-1.09,-4.08,0.77,-0.44,0.19,0.13,7167,2019-04-03 15:52:53:224
-5.67,0.39,16.96,-6.7,1.19,7.06,-0.98,-0.02,0.25,7170,2019-04-03 15:52:53:227
-5.67,0.39,16.96,-6.7,1.19,7.06,-0.98,-0.02,0.25,7175,2019-04-03 15:52:53:232
-5.67,0.39,16.96,-6.7,1.19,7.06,-0.98,-0.02,0.25,7180,2019-04-03 15:52:53:237
-5.67,0.39,16.96,-6.7,1.19,7.06,-0.98,-0.02,0.25,7185,2019-04-03 15:52:53:242
6.93,2.35,27.69,5.95,2.28,16.54,0.1,0.01,0.2,7191,2019-04-03 15:52:53:248
6.93,2.35,27.69,5.95,2.28,16.54,0.1,0.01,0.2,7195,2019-04-03 15:52:53:252
6.93,2.35,27.69,5.95,2.28,16.54,0.1,0.01,0.2,7201,2019-04-03 15:52:53:258
6.93,2.35,27.69,5.95,2.28,16.54,0.1,0.01,0.2,7206,2019-04-03 15:52:53:263
6.93,2.35,27.69,5.95,2.28,16.54,0.1,0.01,0.2,7211,2019-04-03 15:52:53:268
5.13,8.24,7.12,4.71,7.52,-3.84,-0.35,1.11,0.45,7217,2019-04-03 15:52:53:274
5.13,8.24,7.12,4.71,7.52,-3.84,-0.35,1.11,0.45,7221,2019-04-03 15:52:53:278
5.13,8.24,7.12,4.71,7.52,-3.84,-0.35,1.11,0.45,7225,2019-04-03 15:52:53:282
-3.95,3.49,19.78,-5.27,2.92,8.56,-0.63,-0.53,0.1,7230,2019-04-03 15:52:53:287
-3.95,3.49,19.78,-5.27,2.92,8.56,-0.63,-0.53,0.1,7236,2019-04-03 15:52:53:293
-3.95,3.49,19.78,-5.27,2.92,8.56,-0.63,-0.53,0.1,7240,2019-04-03 15:52:53:297
-3.95,3.49,19.78,-5.27,2.92,8.56,-0.63,-0.53,0.1,7245,2019-04-03 15:52:53:302
-3.95,3.49,19.78,-5.27,2.92,8.56,-0.63,-0.53,0.1,7251,2019-04-03 15:52:53:308
-3.95,3.49,19.78,-5.27,2.92,8.56,-0.63,-0.53,0.1,7255,2019-04-03 15:52:53:312
1.77,-1.79,20.04,1.55,-3.55,9.15,2.0,0.66,0.32,7265,2019-04-03 15:52:53:322
1.77,-1.79,20.04,1.55,-3.55,9.15,2.0,0.66,0.32,7266,2019-04-03 15:52:53:323
1.77,-1.79,20.04,1.55,-3.55,9.15,2.0,0.66,0.32,7273,2019-04-03 15:52:53:330
1.77,-1.79,20.04,1.55,-3.55,9.15,2.0,0.66,0.32,7279,2019-04-03 15:52:53:336
1.77,-1.79,20.04,1.55,-3.55,9.15,2.0,0.66,0.32,7280,2019-04-03 15:52:53:337
1.77,-1.79,20.04,1.55,-3.55,9.15,2.0,0.66,0.32,7285,2019-04-03 15:52:53:342
9.92,-4.63,14.88,1.55,-3.55,9.15,-0.51,-0.61,0.0,7289,2019-04-03 15:52:53:346
9.92,-4.63,14.88,9.17,-6.58,3.49,-0.51,-0.61,0.0,7295,2019-04-03 15:52:53:352
9.92,-4.63,14.88,9.17,-6.58,3.49,-0.51,-0.61,0.0,7300,2019-04-03 15:52:53:357
9.92,-4.63,14.88,9.17,-6.58,3.49,-0.51,-0.61,0.0,7308,2019-04-03 15:52:53:365
9.92,-4.63,14.88,9.17,-6.58,3.49,-0.51,-0.61,0.0,7310,2019-04-03 15:52:53:367
9.92,-4.63,14.88,9.17,-6.58,3.49,-0.51,-0.61,0.0,7316,2019-04-03 15:52:53:373
7.05,4.86,16.5,7.06,2.08,5.58,1.01,1.01,0.38,7321,2019-04-03 15:52:53:378
7.05,4.86,16.5,7.06,2.08,5.58,1.01,1.01,0.38,7326,2019-04-03 15:52:53:383
7.05,4.86,16.5,7.06,2.08,5.58,1.01,1.01,0.38,7330,2019-04-03 15:52:53:387
-8.86,7.24,4.93,-8.62,4.65,-6.76,-0.77,0.06,0.25,7336,2019-04-03 15:52:53:393
-8.86,7.24,4.93,-8.62,4.65,-6.76,-0.77,0.06,0.25,7340,2019-04-03 15:52:53:397
-8.86,7.24,4.93,-8.62,4.65,-6.76,-0.77,0.06,0.25,7345,2019-04-03 15:52:53:402
-8.86,7.24,4.93,-8.62,4.65,-6.76,-0.77,0.06,0.25,7350,2019-04-03 15:52:53:407
-8.86,7.24,4.93,-8.62,4.65,-6.76,-0.77,0.06,0.25,7355,2019-04-03 15:52:53:412
0.86,-7.95,15.51,0.83,-10.68,3.99,0.14,-0.31,0.08,7360,2019-04-03 15:52:53:417
0.86,-7.95,15.51,0.83,-10.68,3.99,0.14,-0.31,0.08,7367,2019-04-03 15:52:53:424
0.86,-7.95,15.51,0.83,-10.68,3.99,0.14,-0.31,0.08,7370,2019-04-03 15:52:53:427
0.86,-7.95,15.51,0.83,-10.68,3.99,0.1,0.49,0.09,7377,2019-04-03 15:52:53:434
0.86,-7.95,15.51,0.83,-10.68,3.99,0.1,0.49,0.09,7380,2019-04-03 15:52:53:437
0.86,-7.95,15.51,0.83,-10.68,3.99,0.1,0.49,0.09,7385,2019-04-03 15:52:53:442
4.09,-2.67,9.06,4.77,-4.29,-0.11,-0.54,-0.46,-0.16,7390,2019-04-03 15:52:53:447
4.09,-2.67,9.06,4.77,-4.29,-0.11,-0.54,-0.46,-0.16,7397,2019-04-03 15:52:53:454
4.09,-2.67,9.06,4.77,-4.29,-0.11,-0.54,-0.46,-0.16,7401,2019-04-03 15:52:53:458
4.09,-2.67,9.06,4.77,-4.29,-0.11,-0.54,-0.46,-0.16,7405,2019-04-03 15:52:53:462
17.3,-4.23,16.69,4.77,-4.29,-0.11,-0.54,-0.46,-0.16,7412,2019-04-03 15:52:53:469
17.3,-4.23,16.69,17.04,-5.4,7.4,0.44,0.45,-0.09,7415,2019-04-03 15:52:53:472
17.3,-4.23,16.69,17.04,-5.4,7.4,0.44,0.45,-0.09,7420,2019-04-03 15:52:53:477
17.3,-4.23,16.69,17.04,-5.4,7.4,0.44,0.45,-0.09,7426,2019-04-03 15:52:53:483
17.3,-4.23,16.69,17.04,-5.4,7.4,0.44,0.45,-0.09,7430,2019-04-03 15:52:53:487
17.3,-4.23,16.69,17.04,-5.4,7.4,0.44,0.45,-0.09,7435,2019-04-03 15:52:53:492
-1.02,7.89,16.31,-0.11,6.4,6.84,0.0,0.82,0.09,7440,2019-04-03 15:52:53:497
-1.02,7.89,16.31,-0.11,6.4,6.84,0.0,0.82,0.09,7446,2019-04-03 15:52:53:503
-1.02,7.89,16.31,-0.11,6.4,6.84,0.0,0.82,0.09,7450,2019-04-03 15:52:53:507
-1.02,7.89,16.31,-0.11,6.4,6.84,0.0,0.82,0.09,7455,2019-04-03 15:52:53:512
-5.15,-0.19,10.41,-4.86,-0.64,0.24,-0.4,-0.21,-0.1,7460,2019-04-03 15:52:53:517
-5.15,-0.19,10.41,-4.86,-0.64,0.24,-0.4,-0.21,-0.1,7465,2019-04-03 15:52:53:522
-5.15,-0.19,10.41,-4.86,-0.64,0.24,-0.4,-0.21,-0.1,7470,2019-04-03 15:52:53:527
-4.52,3.4,10.61,-2.74,1.69,-0.85,0.46,-0.33,-0.13,7476,2019-04-03 15:52:53:533
-4.52,3.4,10.61,-2.74,1.69,-0.85,0.46,-0.33,-0.13,7480,2019-04-03 15:52:53:537
-4.52,3.4,10.61,-2.74,1.69,-0.85,0.46,-0.33,-0.13,7485,2019-04-03 15:52:53:542
-4.52,3.4,10.61,-2.74,1.69,-0.85,0.46,-0.33,-0.13,7491,2019-04-03 15:52:53:548
-4.52,3.4,10.61,-2.74,1.69,-0.85,0.46,-0.33,-0.13,7495,2019-04-03 15:52:53:552
4.52,2.8,28.27,-2.74,1.69,-0.85,0.07,0.11,-0.02,7502,2019-04-03 15:52:53:559
4.52,2.8,28.27,5.44,1.66,17.54,0.07,0.11,-0.02,7505,2019-04-03 15:52:53:562
4.52,2.8,28.27,5.44,1.66,17.54,-1.14,-0.2,-0.02,7511,2019-04-03 15:52:53:568
7.65,16.29,9.87,5.44,1.66,17.54,-1.14,-0.2,-0.02,7515,2019-04-03 15:52:53:572
7.65,16.29,9.87,5.44,1.66,17.54,-1.14,-0.2,-0.02,7520,2019-04-03 15:52:53:577
7.65,16.29,9.87,5.44,1.66,17.54,-1.14,-0.2,-0.02,7525,2019-04-03 15:52:53:582
7.65,16.29,9.87,5.44,1.66,17.54,-1.14,-0.2,-0.02,7530,2019-04-03 15:52:53:587
10.26,-7.35,23.5,10.25,-8.32,11.66,0.5,-1.41,-0.38,7536,2019-04-03 15:52:53:593
10.26,-7.35,23.5,10.25,-8.32,11.66,0.5,-1.41,-0.38,7540,2019-04-03 15:52:53:597
10.26,-7.35,23.5,10.25,-8.32,11.66,0.5,-1.41,-0.38,7545,2019-04-03 15:52:53:602
10.26,-7.35,23.5,10.25,-8.32,11.66,0.5,-1.41,-0.38,7551,2019-04-03 15:52:53:608
10.26,-7.35,23.5,10.25,-8.32,11.66,0.5,-1.41,-0.38,7555,2019-04-03 15:52:53:612
9.85,12.0,18.64,10.6,10.73,6.69,0.09,0.87,0.02,7560,2019-04-03 15:52:53:617
9.85,12.0,18.64,10.6,10.73,6.69,0.09,0.87,0.02,7565,2019-04-03 15:52:53:622
9.85,12.0,18.64,10.6,10.73,6.69,-0.07,0.06,0.0,7570,2019-04-03 15:52:53:627
9.85,12.0,18.64,10.6,10.73,6.69,-0.07,0.06,0.0,7575,2019-04-03 15:52:53:632
9.85,12.0,18.64,10.6,10.73,6.69,-0.07,0.06,0.0,7580,2019-04-03 15:52:53:637
9.85,12.0,18.64,10.6,10.73,6.69,-0.07,0.06,0.0,7586,2019-04-03 15:52:53:643
-0.13,2.49,8.04,0.01,0.33,-4.76,0.74,-0.63,-0.16,7590,2019-04-03 15:52:53:647
-0.13,2.49,8.04,0.01,0.33,-4.76,0.74,-0.63,-0.16,7595,2019-04-03 15:52:53:652
-0.13,2.49,8.04,0.01,0.33,-4.76,0.74,-0.63,-0.16,7601,2019-04-03 15:52:53:658
-0.13,2.49,8.04,0.01,0.33,-4.76,0.74,-0.63,-0.16,7605,2019-04-03 15:52:53:662
4.19,4.86,7.83,0.01,0.33,-4.76,-0.23,-0.28,0.0,7611,2019-04-03 15:52:53:668
4.19,4.86,7.83,4.73,2.91,-5.17,-0.23,-0.28,0.0,7615,2019-04-03 15:52:53:672
4.19,4.86,7.83,4.73,2.91,-5.17,-0.23,-0.28,0.0,7620,2019-04-03 15:52:53:677
4.19,4.86,7.83,4.73,2.91,-5.17,-0.23,-0.28,0.0,7627,2019-04-03 15:52:53:684
4.19,4.86,7.83,4.73,2.91,-5.17,-0.23,-0.28,0.0,7630,2019-04-03 15:52:53:687
5.57,-7.93,11.48,5.45,-9.37,-0.66,-0.42,0.1,0.07,7635,2019-04-03 15:52:53:692
5.57,-7.93,11.48,5.45,-9.37,-0.66,-0.42,0.1,0.07,7641,2019-04-03 15:52:53:698
5.57,-7.93,11.48,5.45,-9.37,-0.66,-0.42,0.1,0.07,7646,2019-04-03 15:52:53:703
-4.0,5.38,2.45,5.45,-9.37,-0.66,0.6,0.24,0.18,7650,2019-04-03 15:52:53:707
-4.0,5.38,2.45,-4.16,3.57,-8.65,0.6,0.24,0.18,7655,2019-04-03 15:52:53:712
-4.0,5.38,2.45,-4.16,3.57,-8.65,0.6,0.24,0.18,7661,2019-04-03 15:52:53:718
-4.0,5.38,2.45,-4.16,3.57,-8.65,0.6,0.24,0.18,7665,2019-04-03 15:52:53:722
-3.11,1.01,7.47,-3.51,-0.03,-3.95,-0.39,-0.33,0.14,7670,2019-04-03 15:52:53:727
-3.11,1.01,7.47,-3.51,-0.03,-3.95,-0.39,-0.33,0.14,7677,2019-04-03 15:52:53:734
-3.11,1.01,7.47,-3.51,-0.03,-3.95,-0.39,-0.33,0.14,7683,2019-04-03 15:52:53:740
-3.11,1.01,7.47,-3.51,-0.03,-3.95,-0.39,-0.33,0.14,7685,2019-04-03 15:52:53:742
6.73,-4.15,13.49,6.03,-5.0,2.93,0.04,-0.31,0.15,7690,2019-04-03 15:52:53:747
6.73,-4.15,13.49,6.03,-5.0,2.93,0.04,-0.31,0.15,7696,2019-04-03 15:52:53:753
6.73,-4.15,13.49,6.03,-5.0,2.93,0.04,-0.31,0.15,7700,2019-04-03 15:52:53:757
6.73,-4.15,13.49,6.03,-5.0,2.93,0.04,-0.31,0.15,7705,2019-04-03 15:52:53:762
0.63,2.4,9.93,6.03,-5.0,2.93,0.04,-0.31,0.15,7711,2019-04-03 15:52:53:768
0.63,2.4,9.93,-0.63,1.56,-0.2,0.38,0.24,0.23,7716,2019-04-03 15:52:53:773
0.63,2.4,9.93,-0.63,1.56,-0.2,0.38,0.24,0.23,7720,2019-04-03 15:52:53:777
0.63,2.4,9.93,-0.63,1.56,-0.2,0.38,0.24,0.23,7726,2019-04-03 15:52:53:783
0.63,2.4,9.93,-0.63,1.56,-0.2,0.38,0.24,0.23,7730,2019-04-03 15:52:53:787
0.86,-1.98,12.67,0.51,-2.03,2.93,-0.32,0.07,0.17,7736,2019-04-03 15:52:53:793
0.86,-1.98,12.67,0.51,-2.03,2.93,-0.32,0.07,0.17,7740,2019-04-03 15:52:53:797
0.86,-1.98,12.67,0.51,-2.03,2.93,-0.32,0.07,0.17,7745,2019-04-03 15:52:53:802
-3.21,-3.45,7.85,-3.98,-3.05,-1.45,0.1,0.06,0.16,7750,2019-04-03 15:52:53:807
-3.21,-3.45,7.85,-3.98,-3.05,-1.45,0.1,0.06,0.16,7755,2019-04-03 15:52:53:812
-3.21,-3.45,7.85,-3.98,-3.05,-1.45,0.1,0.06,0.16,7761,2019-04-03 15:52:53:818
-1.22,2.11,9.35,-2.26,2.16,-0.04,0.13,-0.18,0.09,7767,2019-04-03 15:52:53:824
-1.22,2.11,9.35,-2.26,2.16,-0.04,0.13,-0.18,0.09,7771,2019-04-03 15:52:53:828
-1.22,2.11,9.35,-2.26,2.16,-0.04,0.13,-0.18,0.09,7778,2019-04-03 15:52:53:835
-1.22,2.11,9.35,-2.26,2.16,-0.04,0.13,-0.18,0.09,7782,2019-04-03 15:52:53:839
-1.22,2.11,9.35,-2.26,2.16,-0.04,0.13,-0.18,0.09,7786,2019-04-03 15:52:53:843
2.89,-1.21,11.77,2.28,-0.54,2.24,-0.14,0.02,0.04,7790,2019-04-03 15:52:53:847
2.89,-1.21,11.77,2.28,-0.54,2.24,-0.14,0.02,0.04,7795,2019-04-03 15:52:53:852
