ACCELEROMETER X (m/s²),ACCELEROMETER Y (m/s²),ACCELEROMETER Z (m/s²),LINEAR ACCELERATION X (m/s²),LINEAR ACCELERATION Y (m/s²),LINEAR ACCELERATION Z (m/s²),GYROSCOPE X (rad/s),GYROSCOPE Y (rad/s),GYROSCOPE Z (rad/s),Time since start in ms ,YYYY-MO-DD HH-MI-SS_SSS
-2.57,1.23,10.06,-0.68,0.15,-0.07,-0.37,0.27,-0.45,3,2019-03-25 16:02:16:245
-2.67,0.81,9.41,-0.64,-0.16,-0.66,-0.04,0.53,-0.54,8,2019-03-25 16:02:16:250
-2.67,0.81,9.41,-0.64,-0.16,-0.66,-0.04,0.53,-0.54,13,2019-03-25 16:02:16:255
-2.67,0.81,9.41,-0.64,-0.16,-0.66,-0.04,0.53,-0.54,18,2019-03-25 16:02:16:260
-2.67,0.81,9.41,-0.64,-0.16,-0.66,-0.04,0.53,-0.54,23,2019-03-25 16:02:16:265
-1.84,1.35,9.53,0.29,0.33,-0.44,-0.03,1.11,-0.55,28,2019-03-25 16:02:16:270
-1.84,1.35,9.53,0.29,0.33,-0.44,-0.03,1.11,-0.55,33,2019-03-25 16:02:16:275
-1.84,1.35,9.53,0.29,0.33,-0.44,-0.1,1.76,-0.56,38,2019-03-25 16:02:16:280
-1.84,1.35,9.53,0.29,0.33,-0.44,-0.1,1.76,-0.56,43,2019-03-25 16:02:16:285
-1.84,1.35,9.53,0.29,0.33,-0.44,-0.1,1.76,-0.56,48,2019-03-25 16:02:16:290
-1.84,1.35,9.53,0.29,0.33,-0.44,-0.1,1.76,-0.56,53,2019-03-25 16:02:16:295
-1.73,1.32,11.53,0.79,0.41,1.57,-0.03,2.27,-0.6,58,2019-03-25 16:02:16:300
-1.73,1.32,11.53,0.79,0.41,1.57,-0.03,2.27,-0.6,64,2019-03-25 16:02:16:306
-2.85,1.15,10.27,0.16,0.24,0.21,1.08,2.43,-0.46,68,2019-03-25 16:02:16:310
-2.85,1.15,10.27,0.16,0.24,0.21,1.08,2.43,-0.46,73,2019-03-25 16:02:16:315
-2.85,1.15,10.27,0.16,0.24,0.21,1.08,2.43,-0.46,78,2019-03-25 16:02:16:320
-2.85,1.15,10.27,0.16,0.24,0.21,1.08,2.43,-0.46,83,2019-03-25 16:02:16:325
-1.64,3.16,-3.33,1.37,1.91,-12.9,1.61,-0.5,-0.04,88,2019-03-25 16:02:16:330
-1.64,3.16,-3.33,1.37,1.91,-12.9,1.61,-0.5,-0.04,93,2019-03-25 16:02:16:335
-1.64,3.16,-3.33,1.37,1.91,-12.9,1.61,-0.5,-0.04,98,2019-03-25 16:02:16:340
-1.64,3.16,-3.33,1.37,1.91,-12.9,1.61,-0.5,-0.04,103,2019-03-25 16:02:16:345
-1.36,1.87,2.3,1.55,0.44,-6.92,-0.15,-1.25,-0.68,108,2019-03-25 16:02:16:350
-1.36,1.87,2.3,1.55,0.44,-6.92,-0.15,-1.25,-0.68,113,2019-03-25 16:02:16:355
-1.36,1.87,2.3,1.55,0.44,-6.92,-0.15,-1.25,-0.68,118,2019-03-25 16:02:16:360
-1.36,1.87,2.3,1.55,0.44,-6.92,-0.15,-1.25,-0.68,123,2019-03-25 16:02:16:365
-1.25,0.69,-0.56,1.33,-0.65,-8.99,-0.23,-1.66,-0.89,128,2019-03-25 16:02:16:370
-1.25,0.69,-0.56,1.33,-0.65,-8.99,-0.23,-1.66,-0.89,133,2019-03-25 16:02:16:375
-1.25,0.69,-0.56,1.33,-0.65,-8.99,-0.78,-2.04,-0.96,138,2019-03-25 16:02:16:380
-1.25,0.69,-0.56,1.33,-0.65,-8.99,-0.78,-2.04,-0.96,143,2019-03-25 16:02:16:385
-1.25,0.69,-0.56,1.33,-0.65,-8.99,-0.78,-2.04,-0.96,148,2019-03-25 16:02:16:390
-1.25,0.69,-0.56,1.33,-0.65,-8.99,-0.78,-2.04,-0.96,153,2019-03-25 16:02:16:395
1.13,5.6,3.49,2.97,4.23,-4.35,-1.24,-2.75,-1.02,157,2019-03-25 16:02:16:399
1.13,5.6,3.49,2.97,4.23,-4.35,-1.24,-2.75,-1.02,163,2019-03-25 16:02:16:405
0.54,0.29,3.06,0.62,-0.89,-4.42,-0.82,-9.15,-1.48,169,2019-03-25 16:02:16:411
0.54,0.29,3.06,0.62,-0.89,-4.42,-0.82,-9.15,-1.48,173,2019-03-25 16:02:16:415
0.54,0.29,3.06,0.62,-0.89,-4.42,-0.82,-9.15,-1.48,178,2019-03-25 16:02:16:420
0.54,0.29,3.06,0.62,-0.89,-4.42,-0.82,-9.15,-1.48,183,2019-03-25 16:02:16:425
-5.92,-3.78,24.63,-7.1,-4.16,16.29,-2.81,-7.84,-1.17,188,2019-03-25 16:02:16:430
-5.92,-3.78,24.63,-7.1,-4.16,16.29,-2.81,-7.84,-1.17,193,2019-03-25 16:02:16:435
-5.92,-3.78,24.63,-7.1,-4.16,16.29,-2.81,-7.84,-1.17,198,2019-03-25 16:02:16:440
-5.92,-3.78,24.63,-7.1,-4.16,16.29,-2.81,-7.84,-1.17,203,2019-03-25 16:02:16:445
4.34,-2.11,30.57,2.78,-1.51,20.1,-4.64,1.49,-0.21,208,2019-03-25 16:02:16:450
4.34,-2.11,30.57,2.78,-1.51,20.1,-4.64,1.49,-0.21,213,2019-03-25 16:02:16:455
4.34,-2.11,30.57,2.78,-1.51,20.1,-4.64,1.49,-0.21,218,2019-03-25 16:02:16:460
4.34,-2.11,30.57,2.78,-1.51,20.1,-4.64,1.49,-0.21,223,2019-03-25 16:02:16:465
4.34,-2.11,30.57,2.78,-1.51,20.1,-4.64,1.49,-0.21,228,2019-03-25 16:02:16:470
4.34,-2.11,30.57,2.78,-1.51,20.1,-4.64,1.49,-0.21,233,2019-03-25 16:02:16:475
-0.91,-0.27,3.13,0.05,0.06,-6.69,3.14,9.74,-0.74,238,2019-03-25 16:02:16:480
-0.91,-0.27,3.13,0.05,0.06,-6.69,3.14,9.74,-0.74,243,2019-03-25 16:02:16:485
-0.91,-0.27,3.13,0.05,0.06,-6.69,3.14,9.74,-0.74,248,2019-03-25 16:02:16:490
-0.65,0.07,-0.97,0.43,0.18,-9.76,0.75,1.1,-0.75,253,2019-03-25 16:02:16:495
-0.65,0.07,-0.97,0.43,0.18,-9.76,0.75,1.1,-0.75,258,2019-03-25 16:02:16:500
-0.65,0.07,-0.97,0.43,0.18,-9.76,0.75,1.1,-0.75,263,2019-03-25 16:02:16:505
-5.56,-0.44,-0.17,-4.12,-0.1,-7.62,-1.56,0.58,-0.89,268,2019-03-25 16:02:16:510
-5.56,-0.44,-0.17,-4.12,-0.1,-7.62,-1.56,0.58,-0.89,273,2019-03-25 16:02:16:515
-5.56,-0.44,-0.17,-4.12,-0.1,-7.62,-1.56,0.58,-0.89,278,2019-03-25 16:02:16:520
-5.56,-0.44,-0.17,-4.12,-0.1,-7.62,-1.56,0.58,-0.89,283,2019-03-25 16:02:16:525
-3.95,-0.97,29.43,-3.0,-0.16,19.53,-0.69,-7.77,-0.62,288,2019-03-25 16:02:16:530
-3.95,-0.97,29.43,-3.0,-0.16,19.53,-0.69,-7.77,-0.62,293,2019-03-25 16:02:16:535
-3.95,-0.97,29.43,-3.0,-0.16,19.53,-0.69,-7.77,-0.62,298,2019-03-25 16:02:16:540
-3.95,-0.97,29.43,-3.0,-0.16,19.53,-0.69,-7.77,-0.62,303,2019-03-25 16:02:16:545
2.17,1.26,22.85,2.07,1.78,12.36,0.55,-3.22,-0.05,308,2019-03-25 16:02:16:550
2.17,1.26,22.85,2.07,1.78,12.36,0.55,-3.22,-0.05,312,2019-03-25 16:02:16:554
2.17,1.26,22.85,2.07,1.78,12.36,0.55,-3.22,-0.05,318,2019-03-25 16:02:16:560
2.17,1.26,22.85,2.07,1.78,12.36,0.55,-3.22,-0.05,323,2019-03-25 16:02:16:565
-1.27,0.22,3.4,-0.74,0.65,-7.56,0.33,3.58,-0.39,328,2019-03-25 16:02:16:570
-1.27,0.22,3.4,-0.74,0.65,-7.56,0.33,3.58,-0.39,334,2019-03-25 16:02:16:576
-1.27,0.22,3.4,-0.74,0.65,-7.56,0.33,3.58,-0.39,338,2019-03-25 16:02:16:580
-1.27,0.22,3.4,-0.74,0.65,-7.56,0.33,3.58,-0.39,343,2019-03-25 16:02:16:585
-1.27,0.22,3.4,-0.74,0.65,-7.56,0.33,3.58,-0.39,348,2019-03-25 16:02:16:590
-2.8,-0.54,10.67,-0.74,0.65,-7.56,0.33,3.58,-0.39,354,2019-03-25 16:02:16:596
-2.8,-0.54,10.67,-1.36,0.12,-0.48,-0.16,1.85,-0.1,358,2019-03-25 16:02:16:600
-2.8,-0.54,10.67,-1.36,0.12,-0.48,-0.16,1.85,-0.1,363,2019-03-25 16:02:16:605
-1.07,-0.23,7.7,0.79,0.39,-2.62,0.03,-0.28,0.01,368,2019-03-25 16:02:16:610
-1.07,-0.23,7.7,0.79,0.39,-2.62,0.03,-0.28,0.01,373,2019-03-25 16:02:16:615
-1.07,-0.23,7.7,0.79,0.39,-2.62,0.03,-0.28,0.01,378,2019-03-25 16:02:16:620
-1.07,-0.23,7.7,0.79,0.39,-2.62,0.03,-0.28,0.01,382,2019-03-25 16:02:16:624
-0.3,-0.14,11.0,0.67,0.05,0.5,0.15,-1.98,0.02,388,2019-03-25 16:02:16:630
-0.3,-0.14,11.0,0.67,0.05,0.5,0.15,-1.98,0.02,393,2019-03-25 16:02:16:635
-0.3,-0.14,11.0,0.67,0.05,0.5,0.15,-1.98,0.02,398,2019-03-25 16:02:16:640
-0.3,-0.14,11.0,0.67,0.05,0.5,0.15,-1.98,0.02,403,2019-03-25 16:02:16:645
0.5,-0.06,16.9,1.13,0.08,7.97,0.0,-1.58,0.0,410,2019-03-25 16:02:16:652
0.5,-0.06,16.9,1.13,0.08,7.97,0.0,-1.58,0.0,413,2019-03-25 16:02:16:655
0.5,-0.06,16.9,1.13,0.08,7.97,0.0,-1.58,0.0,418,2019-03-25 16:02:16:660
0.5,-0.06,16.9,1.13,0.08,7.97,0.0,-1.58,0.0,423,2019-03-25 16:02:16:665
-0.85,-0.1,7.93,1.13,0.08,7.97,0.01,2.24,-0.02,428,2019-03-25 16:02:16:670
-0.85,-0.1,7.93,1.13,0.08,7.97,0.01,2.24,-0.02,433,2019-03-25 16:02:16:675
-0.85,-0.1,7.93,0.09,0.08,-1.47,-0.06,1.73,0.0,438,2019-03-25 16:02:16:680
-1.09,-0.18,7.55,0.09,0.08,-1.47,-0.08,0.88,0.0,444,2019-03-25 16:02:16:686
-1.09,-0.18,7.55,0.09,0.08,-1.47,-0.08,0.88,0.0,448,2019-03-25 16:02:16:690
-1.09,-0.18,7.55,0.23,0.0,-2.49,-0.08,0.88,0.0,453,2019-03-25 16:02:16:695
-1.09,-0.18,7.55,0.23,0.0,-2.49,-0.08,0.88,0.0,459,2019-03-25 16:02:16:701
-1.09,-0.18,7.55,0.23,0.0,-2.49,-0.08,0.88,0.0,464,2019-03-25 16:02:16:706
-1.09,-0.18,7.55,0.23,0.0,-2.49,-0.08,0.88,0.0,468,2019-03-25 16:02:16:710
-0.68,-0.12,9.28,0.23,0.0,-2.49,0.07,-0.83,0.01,474,2019-03-25 16:02:16:716
-0.68,-0.12,9.28,0.47,0.04,-1.81,0.07,-0.83,0.01,478,2019-03-25 16:02:16:720
-0.68,-0.12,9.28,0.47,0.04,-1.81,0.07,-0.83,0.01,484,2019-03-25 16:02:16:726
-0.68,-0.12,9.28,0.47,0.04,-1.81,0.07,-0.83,0.01,488,2019-03-25 16:02:16:730
0.18,0.05,12.84,0.47,0.04,-1.81,0.01,-1.75,0.02,493,2019-03-25 16:02:16:735
0.18,0.05,12.84,0.47,0.04,-1.81,0.01,-1.75,0.02,498,2019-03-25 16:02:16:740
-0.31,-0.1,9.88,0.1,0.03,0.28,0.01,0.52,0.0,507,2019-03-25 16:02:16:749
-0.31,-0.1,9.88,0.1,0.03,0.28,0.01,0.52,0.0,508,2019-03-25 16:02:16:750
-0.31,-0.1,9.88,0.1,0.03,0.28,0.01,0.52,0.0,513,2019-03-25 16:02:16:755
-0.31,-0.1,9.88,0.1,0.03,0.28,0.01,0.52,0.0,518,2019-03-25 16:02:16:760
-0.31,-0.1,9.88,0.1,0.03,0.28,0.01,0.52,0.0,523,2019-03-25 16:02:16:765
-0.91,-0.15,7.98,-0.17,0.01,-1.65,-0.02,1.4,0.0,529,2019-03-25 16:02:16:771
-0.91,-0.15,7.98,-0.17,0.01,-1.65,-0.02,1.4,0.0,533,2019-03-25 16:02:16:775
-0.91,-0.15,7.98,-0.17,0.01,-1.65,-0.02,1.4,0.0,537,2019-03-25 16:02:16:779
-0.91,-0.15,7.98,-0.17,0.01,-1.65,-0.02,1.4,0.0,543,2019-03-25 16:02:16:785
-0.91,-0.15,7.98,-0.17,0.01,-1.65,-0.02,1.4,0.0,549,2019-03-25 16:02:16:791
-0.91,-0.15,7.98,-0.17,0.01,-1.65,-0.02,1.4,0.0,553,2019-03-25 16:02:16:795
-0.84,-0.14,8.44,-0.13,-0.03,-1.33,0.0,0.1,0.0,558,2019-03-25 16:02:16:800
-0.84,-0.14,8.44,-0.13,-0.03,-1.33,0.0,0.1,0.0,564,2019-03-25 16:02:16:806
-0.36,-0.16,10.48,0.11,-0.07,0.45,0.04,-1.14,0.01,568,2019-03-25 16:02:16:810
-0.36,-0.16,10.48,0.11,-0.07,0.45,0.04,-1.14,0.01,573,2019-03-25 16:02:16:815
-0.36,-0.16,10.48,0.11,-0.07,0.45,0.04,-1.14,0.01,578,2019-03-25 16:02:16:820
-0.36,-0.16,10.48,0.11,-0.07,0.45,0.04,-1.14,0.01,583,2019-03-25 16:02:16:825
-0.36,-0.16,10.48,0.11,-0.07,0.45,0.04,-1.14,0.01,588,2019-03-25 16:02:16:830
-0.36,-0.16,10.48,0.11,-0.07,0.45,0.04,-1.14,0.01,593,2019-03-25 16:02:16:835
-0.36,-0.16,10.48,0.11,-0.07,0.45,0.04,-1.14,0.01,598,2019-03-25 16:02:16:840
-0.22,-0.13,12.06,0.04,-0.03,1.74,-0.02,-0.9,0.01,603,2019-03-25 16:02:16:845
-0.22,-0.13,12.06,0.04,-0.03,1.74,-0.02,-0.9,0.01,608,2019-03-25 16:02:16:850
-0.22,-0.13,12.06,0.04,-0.03,1.74,-0.02,-0.9,0.01,613,2019-03-25 16:02:16:855
-0.22,-0.13,12.06,0.04,-0.03,1.74,-0.02,-0.9,0.01,618,2019-03-25 16:02:16:860
-0.22,-0.13,12.06,0.04,-0.03,1.74,-0.02,-0.9,0.01,623,2019-03-25 16:02:16:865
-0.83,-0.1,8.35,0.04,0.01,-1.37,-0.02,0.71,0.0,628,2019-03-25 16:02:16:870
-0.83,-0.1,8.35,0.04,0.01,-1.37,-0.02,0.71,0.0,633,2019-03-25 16:02:16:875
-0.83,-0.1,8.35,0.04,0.01,-1.37,-0.02,0.71,0.0,638,2019-03-25 16:02:16:880
-0.83,-0.1,8.35,0.04,0.01,-1.37,-0.02,0.71,0.0,643,2019-03-25 16:02:16:885
-0.83,-0.1,8.35,0.04,0.01,-1.37,-0.02,0.71,0.0,648,2019-03-25 16:02:16:890
-0.65,-0.14,9.57,0.18,-0.02,-0.32,0.01,-0.34,0.01,653,2019-03-25 16:02:16:895
-0.65,-0.14,9.57,0.18,-0.02,-0.32,0.01,-0.34,0.01,658,2019-03-25 16:02:16:900
-0.65,-0.14,9.57,0.18,-0.02,-0.32,0.01,-0.34,0.01,662,2019-03-25 16:02:16:904
-0.26,-0.1,11.21,0.36,0.0,1.09,0.01,-0.86,0.01,668,2019-03-25 16:02:16:910
-0.26,-0.1,11.21,0.36,0.0,1.09,0.01,-0.86,0.01,673,2019-03-25 16:02:16:915
-0.26,-0.1,11.21,0.36,0.0,1.09,0.01,-0.86,0.01,678,2019-03-25 16:02:16:920
-0.26,-0.1,11.21,0.36,0.0,1.09,0.01,-0.86,0.01,683,2019-03-25 16:02:16:925
-0.26,-0.1,11.21,0.36,0.0,1.09,0.01,-0.86,0.01,688,2019-03-25 16:02:16:930
-0.26,-0.1,11.21,0.36,0.0,1.09,0.01,-0.86,0.01,693,2019-03-25 16:02:16:935
-0.26,-0.1,11.21,0.36,0.0,1.09,0.01,-0.86,0.01,698,2019-03-25 16:02:16:940
-0.25,-0.09,10.87,0.27,0.02,0.81,0.0,-0.24,0.0,704,2019-03-25 16:02:16:946
-0.25,-0.09,10.87,0.27,0.02,0.81,0.0,-0.24,0.0,708,2019-03-25 16:02:16:950
-0.25,-0.09,10.87,0.27,0.02,0.81,0.0,-0.24,0.0,713,2019-03-25 16:02:16:955
-0.55,-0.14,9.42,0.11,-0.02,-0.42,0.01,0.7,0.0,718,2019-03-25 16:02:16:960
-0.55,-0.14,9.42,0.11,-0.02,-0.42,0.01,0.7,0.0,723,2019-03-25 16:02:16:965
-0.55,-0.14,9.42,0.11,-0.02,-0.42,0.01,0.7,0.0,727,2019-03-25 16:02:16:969
-0.55,-0.14,9.42,0.11,-0.02,-0.42,0.01,0.7,0.0,732,2019-03-25 16:02:16:974
-0.55,-0.14,9.42,0.11,-0.02,-0.42,0.01,0.7,0.0,738,2019-03-25 16:02:16:980
-0.55,-0.14,9.42,0.11,-0.02,-0.42,0.01,0.7,0.0,743,2019-03-25 16:02:16:985
-0.55,-0.14,9.42,0.11,-0.02,-0.42,0.01,0.7,0.0,748,2019-03-25 16:02:16:990
-0.55,-0.14,9.42,0.11,-0.02,-0.42,0.01,0.7,0.0,752,2019-03-25 16:02:16:994
-0.61,-0.1,9.65,0.06,0.0,-0.39,0.0,-0.17,0.01,757,2019-03-25 16:02:16:999
-0.61,-0.1,9.65,0.06,0.0,-0.39,0.0,-0.17,0.01,763,2019-03-25 16:02:17:005
-0.36,-0.09,10.45,0.15,0.0,0.37,0.01,-0.54,0.01,768,2019-03-25 16:02:17:010
-0.36,-0.09,10.45,0.15,0.0,0.37,0.01,-0.54,0.01,773,2019-03-25 16:02:17:015
-0.36,-0.09,10.45,0.15,0.0,0.37,0.01,-0.54,0.01,778,2019-03-25 16:02:17:020
-0.36,-0.09,10.45,0.15,0.0,0.37,0.01,-0.54,0.01,783,2019-03-25 16:02:17:025
-0.36,-0.09,10.45,0.15,0.0,0.37,0.01,-0.54,0.01,788,2019-03-25 16:02:17:030
-0.36,-0.09,10.45,0.15,0.0,0.37,0.01,-0.54,0.01,793,2019-03-25 16:02:17:035
-0.36,-0.09,10.45,0.15,0.0,0.37,0.01,-0.54,0.01,798,2019-03-25 16:02:17:040
-0.39,-0.09,10.46,0.03,0.0,0.56,0.0,-0.27,0.01,803,2019-03-25 16:02:17:045
-0.39,-0.09,10.46,0.03,0.0,0.56,0.0,-0.27,0.01,808,2019-03-25 16:02:17:050
-0.39,-0.09,10.46,0.03,0.0,0.56,0.0,-0.27,0.01,813,2019-03-25 16:02:17:055
-0.57,-0.12,9.59,-0.09,-0.02,-0.3,0.0,0.39,0.0,818,2019-03-25 16:02:17:060
-0.57,-0.12,9.59,-0.09,-0.02,-0.3,0.0,0.39,0.0,823,2019-03-25 16:02:17:065
-0.57,-0.12,9.59,-0.09,-0.02,-0.3,0.0,0.39,0.0,828,2019-03-25 16:02:17:070
-0.57,-0.12,9.59,-0.06,-0.02,-0.5,0.0,0.14,0.0,833,2019-03-25 16:02:17:075
-0.57,-0.12,9.59,-0.06,-0.02,-0.5,0.0,0.14,0.0,838,2019-03-25 16:02:17:080
-0.57,-0.12,9.59,-0.06,-0.02,-0.5,0.0,0.14,0.0,843,2019-03-25 16:02:17:085
-0.57,-0.12,9.59,-0.06,-0.02,-0.5,0.0,0.14,0.0,848,2019-03-25 16:02:17:090
-0.55,-0.12,9.6,0.0,-0.02,-0.4,0.0,-0.04,0.01,853,2019-03-25 16:02:17:095
-0.55,-0.12,9.6,0.0,-0.02,-0.4,0.0,-0.04,0.01,858,2019-03-25 16:02:17:100
-0.55,-0.12,9.6,0.0,-0.02,-0.4,0.0,-0.04,0.01,863,2019-03-25 16:02:17:105
-0.43,-0.15,10.25,0.06,-0.04,0.29,0.0,-0.33,0.01,868,2019-03-25 16:02:17:110
-0.43,-0.15,10.25,0.06,-0.04,0.29,0.0,-0.33,0.01,873,2019-03-25 16:02:17:115
-0.43,-0.15,10.25,0.06,-0.04,0.29,0.0,-0.33,0.01,878,2019-03-25 16:02:17:120
-0.43,-0.15,10.25,0.06,-0.04,0.29,0.0,-0.33,0.01,883,2019-03-25 16:02:17:125
-0.43,-0.15,10.25,0.06,-0.04,0.29,0.0,-0.33,0.01,888,2019-03-25 16:02:17:130
-0.43,-0.15,10.25,0.06,-0.04,0.29,0.0,-0.33,0.01,894,2019-03-25 16:02:17:136
-0.43,-0.15,10.25,0.06,-0.04,0.29,0.0,-0.33,0.01,898,2019-03-25 16:02:17:140
-0.39,-0.08,10.34,0.05,0.01,0.47,0.0,-0.18,0.01,902,2019-03-25 16:02:17:144
-0.39,-0.08,10.34,0.05,0.01,0.47,0.0,-0.18,0.01,907,2019-03-25 16:02:17:149
-0.39,-0.08,10.34,0.05,0.01,0.47,0.0,-0.18,0.01,913,2019-03-25 16:02:17:155
-0.39,-0.08,10.34,0.05,0.01,0.47,0.0,-0.18,0.01,917,2019-03-25 16:02:17:159
-0.39,-0.08,10.34,0.05,0.01,0.47,0.0,-0.18,0.01,923,2019-03-25 16:02:17:165
-0.57,-0.11,9.57,0.05,0.01,0.47,0.0,-0.18,0.01,928,2019-03-25 16:02:17:170
-0.57,-0.11,9.57,-0.04,0.0,-0.38,0.0,0.25,0.0,933,2019-03-25 16:02:17:175
-0.57,-0.11,9.57,-0.04,0.0,-0.38,0.0,0.25,0.0,938,2019-03-25 16:02:17:180
-0.57,-0.11,9.57,-0.04,0.0,-0.38,0.0,0.25,0.0,943,2019-03-25 16:02:17:185
-0.57,-0.11,9.57,-0.04,0.0,-0.38,0.0,0.25,0.0,948,2019-03-25 16:02:17:190
-0.53,-0.13,9.81,0.01,-0.02,-0.16,0.0,0.0,0.0,953,2019-03-25 16:02:17:195
-0.53,-0.13,9.81,0.01,-0.02,-0.16,0.0,0.0,0.0,958,2019-03-25 16:02:17:200
-0.53,-0.13,9.81,0.01,-0.02,-0.16,0.0,0.0,0.0,963,2019-03-25 16:02:17:205
-0.47,-0.14,10.17,0.03,-0.02,0.2,0.0,-0.19,0.0,968,2019-03-25 16:02:17:210
-0.47,-0.14,10.17,0.03,-0.02,0.2,0.0,-0.19,0.0,973,2019-03-25 16:02:17:215
-0.47,-0.14,10.17,0.03,-0.02,0.2,0.0,-0.19,0.0,978,2019-03-25 16:02:17:220
-0.47,-0.14,10.17,0.03,-0.02,0.2,0.0,-0.19,0.0,983,2019-03-25 16:02:17:225
-0.47,-0.14,10.17,0.03,-0.02,0.2,0.0,-0.19,0.0,988,2019-03-25 16:02:17:230
-0.47,-0.14,10.17,0.03,-0.02,0.2,0.0,-0.19,0.0,993,2019-03-25 16:02:17:235
-0.47,-0.14,10.17,0.03,-0.02,0.2,0.0,-0.19,0.0,998,2019-03-25 16:02:17:240
-0.46,-0.11,10.14,0.02,0.0,0.24,0.0,-0.05,0.01,1003,2019-03-25 16:02:17:245
-0.46,-0.11,10.14,0.02,0.0,0.24,0.0,-0.05,0.01,1007,2019-03-25 16:02:17:249
-0.46,-0.11,10.14,0.02,0.0,0.24,0.0,-0.05,0.01,1012,2019-03-25 16:02:17:254
-0.5,-0.1,9.75,0.0,0.0,-0.14,0.0,0.13,0.0,1018,2019-03-25 16:02:17:260
-0.5,-0.1,9.75,0.0,0.0,-0.14,0.0,0.13,0.0,1022,2019-03-25 16:02:17:264
-0.5,-0.1,9.75,0.0,0.0,-0.14,0.0,0.13,0.0,1028,2019-03-25 16:02:17:270
-0.53,-0.11,9.79,-0.01,0.0,-0.13,0.0,0.06,0.0,1033,2019-03-25 16:02:17:275
-0.53,-0.11,9.79,-0.01,0.0,-0.13,0.0,0.06,0.0,1038,2019-03-25 16:02:17:280
-0.53,-0.11,9.79,-0.01,0.0,-0.13,0.0,0.06,0.0,1043,2019-03-25 16:02:17:285
-0.53,-0.11,9.79,-0.01,0.0,-0.13,0.0,0.06,0.0,1048,2019-03-25 16:02:17:290
-0.47,-0.1,10.02,0.02,0.0,0.04,0.0,-0.06,0.01,1053,2019-03-25 16:02:17:295
-0.47,-0.1,10.02,0.02,0.0,0.04,0.0,-0.06,0.01,1058,2019-03-25 16:02:17:300
-0.47,-0.1,10.02,0.02,0.0,0.04,0.0,-0.06,0.01,1063,2019-03-25 16:02:17:305
-0.48,-0.08,10.05,0.0,0.02,0.08,0.0,-0.03,0.0,1068,2019-03-25 16:02:17:310
-0.48,-0.08,10.05,0.0,0.02,0.08,0.0,-0.03,0.0,1073,2019-03-25 16:02:17:315
-0.48,-0.08,10.05,0.0,0.02,0.08,0.0,-0.03,0.0,1078,2019-03-25 16:02:17:320
-0.48,-0.08,10.05,0.0,0.02,0.08,0.0,-0.03,0.0,1083,2019-03-25 16:02:17:325
-0.48,-0.08,10.05,0.0,0.02,0.08,0.0,-0.03,0.0,1088,2019-03-25 16:02:17:330
-0.48,-0.08,10.05,0.0,0.02,0.08,0.0,-0.03,0.0,1093,2019-03-25 16:02:17:335
-0.48,-0.08,10.05,0.0,0.02,0.08,0.0,-0.03,0.0,1098,2019-03-25 16:02:17:340
-0.53,-0.12,9.85,-0.02,0.0,-0.06,0.0,0.05,0.0,1103,2019-03-25 16:02:17:345
-0.53,-0.12,9.85,-0.02,0.0,-0.06,0.0,0.05,0.0,1108,2019-03-25 16:02:17:350
-0.53,-0.12,9.85,-0.02,0.0,-0.06,0.0,0.05,0.0,1113,2019-03-25 16:02:17:355
-0.53,-0.12,9.85,-0.02,0.0,-0.06,0.0,0.05,0.0,1117,2019-03-25 16:02:17:359
-0.53,-0.12,9.85,-0.02,0.0,-0.06,0.0,0.05,0.0,1123,2019-03-25 16:02:17:365
-0.49,-0.11,10.01,0.0,0.0,0.07,0.0,-0.02,0.0,1130,2019-03-25 16:02:17:372
-0.49,-0.11,10.01,0.0,0.0,0.07,0.0,-0.02,0.0,1132,2019-03-25 16:02:17:374
-0.49,-0.11,10.01,0.0,0.0,0.07,0.0,-0.02,0.0,1139,2019-03-25 16:02:17:381
-0.49,-0.11,10.01,0.0,0.0,0.07,0.0,-0.02,0.0,1143,2019-03-25 16:02:17:385
-0.49,-0.11,10.01,0.0,0.0,0.07,0.0,-0.02,0.0,1149,2019-03-25 16:02:17:391
-0.49,-0.1,9.92,0.0,0.0,-0.03,0.0,0.0,0.01,1153,2019-03-25 16:02:17:395
-0.49,-0.1,9.92,0.0,0.0,-0.03,0.0,0.0,0.01,1158,2019-03-25 16:02:17:400
-0.49,-0.1,9.92,0.0,0.0,-0.03,0.0,0.0,0.01,1163,2019-03-25 16:02:17:405
-0.49,-0.1,9.92,0.0,0.0,-0.03,0.0,0.0,0.01,1168,2019-03-25 16:02:17:410
-0.49,-0.1,9.92,0.0,0.0,-0.03,0.0,0.0,0.01,1173,2019-03-25 16:02:17:415
-0.5,-0.11,9.98,-0.01,0.0,0.03,0.0,0.02,0.0,1178,2019-03-25 16:02:17:420
-0.5,-0.11,9.98,-0.01,0.0,0.03,0.0,0.02,0.0,1183,2019-03-25 16:02:17:425
-0.5,-0.11,9.98,-0.01,0.0,0.03,0.0,0.02,0.0,1188,2019-03-25 16:02:17:430
-0.5,-0.11,9.98,-0.01,0.0,0.03,0.0,0.02,0.0,1193,2019-03-25 16:02:17:435
-0.5,-0.11,9.98,-0.01,0.0,0.03,0.0,0.02,0.0,1198,2019-03-25 16:02:17:440
-0.49,-0.14,9.98,0.0,-0.02,0.06,0.0,0.0,0.01,1203,2019-03-25 16:02:17:445
-0.49,-0.14,9.98,0.0,-0.02,0.06,0.0,0.0,0.01,1208,2019-03-25 16:02:17:450
-0.49,-0.14,9.98,0.0,-0.02,0.06,0.0,0.0,0.01,1213,2019-03-25 16:02:17:455
-0.49,-0.14,9.98,0.0,-0.02,0.06,0.0,0.0,0.01,1218,2019-03-25 16:02:17:460
-0.49,-0.14,9.98,0.0,-0.02,0.06,0.0,0.0,0.01,1223,2019-03-25 16:02:17:465
-0.46,-0.12,9.92,0.02,0.0,-0.03,0.0,0.01,0.0,1228,2019-03-25 16:02:17:470
-0.46,-0.12,9.92,0.02,0.0,-0.03,0.0,0.01,0.0,1233,2019-03-25 16:02:17:475
-0.46,-0.12,9.92,0.02,0.0,-0.03,0.0,0.01,0.0,1238,2019-03-25 16:02:17:480
-0.46,-0.12,9.92,0.02,0.0,-0.03,0.0,0.01,0.0,1243,2019-03-25 16:02:17:485
-0.48,-0.12,9.91,0.0,0.0,-0.03,0.0,0.0,0.0,1248,2019-03-25 16:02:17:490
-0.48,-0.12,9.91,0.0,0.0,-0.03,0.0,0.0,0.0,1253,2019-03-25 16:02:17:495
-0.48,-0.12,9.91,0.0,0.0,-0.03,0.0,0.0,0.0,1260,2019-03-25 16:02:17:502
-0.48,-0.12,9.91,0.0,0.0,-0.03,0.0,0.0,0.0,1263,2019-03-25 16:02:17:505
-0.46,-0.11,9.89,0.01,0.01,-0.04,0.0,0.0,0.0,1268,2019-03-25 16:02:17:510
-0.46,-0.11,9.89,0.01,0.01,-0.04,0.0,0.0,0.0,1273,2019-03-25 16:02:17:515
-0.46,-0.11,9.89,0.01,0.01,-0.04,0.0,0.0,0.0,1278,2019-03-25 16:02:17:520
-0.46,-0.11,9.89,0.01,0.01,-0.04,0.0,0.0,0.0,1283,2019-03-25 16:02:17:525
-0.46,-0.11,9.89,0.01,0.01,-0.04,0.0,0.0,0.0,1288,2019-03-25 16:02:17:530
-0.46,-0.11,9.89,0.01,0.01,-0.04,0.0,0.0,0.0,1293,2019-03-25 16:02:17:535
-0.46,-0.11,9.89,0.01,0.01,-0.04,0.0,0.0,0.0,1298,2019-03-25 16:02:17:540
-0.46,-0.12,9.97,0.0,0.01,0.0,0.0,0.0,0.01,1303,2019-03-25 16:02:17:545
-0.46,-0.12,9.97,0.0,0.01,0.0,0.0,0.0,0.01,1309,2019-03-25 16:02:17:551
-0.46,-0.12,9.97,0.0,0.01,0.0,0.0,0.0,0.01,1313,2019-03-25 16:02:17:555
-0.48,-0.12,9.95,0.0,0.0,0.01,0.0,0.0,0.0,1318,2019-03-25 16:02:17:560
-0.48,-0.12,9.95,0.0,0.0,0.01,0.0,0.0,0.0,1323,2019-03-25 16:02:17:565
-0.48,-0.12,9.95,0.0,0.0,0.01,0.0,0.0,0.0,1328,2019-03-25 16:02:17:570
-0.48,-0.12,9.96,0.0,0.0,0.01,0.0,0.0,0.0,1333,2019-03-25 16:02:17:575
-0.48,-0.12,9.96,0.0,0.0,0.03,0.0,0.0,0.01,1338,2019-03-25 16:02:17:580
-0.48,-0.12,9.96,0.0,0.0,0.03,0.0,0.0,0.01,1343,2019-03-25 16:02:17:585
-0.48,-0.12,9.96,0.0,0.0,0.03,0.0,0.0,0.01,1348,2019-03-25 16:02:17:590
-0.48,-0.12,9.96,0.0,0.0,0.03,0.0,0.0,0.01,1353,2019-03-25 16:02:17:595
-0.49,-0.12,9.9,-0.01,0.0,-0.02,0.0,0.0,0.0,1358,2019-03-25 16:02:17:600
-0.49,-0.12,9.9,-0.01,0.0,-0.02,0.0,0.0,0.0,1363,2019-03-25 16:02:17:605
-0.49,-0.12,9.9,-0.01,0.0,-0.02,0.0,0.0,0.0,1368,2019-03-25 16:02:17:610
-0.49,-0.12,9.9,-0.01,0.0,-0.02,0.0,0.0,0.0,1372,2019-03-25 16:02:17:614
-0.5,-0.14,9.87,-0.02,-0.01,-0.05,0.0,0.0,0.01,1378,2019-03-25 16:02:17:620
-0.5,-0.14,9.87,-0.02,-0.01,-0.05,0.0,0.0,0.01,1384,2019-03-25 16:02:17:626
-0.5,-0.14,9.87,-0.02,-0.01,-0.05,0.0,0.0,0.01,1388,2019-03-25 16:02:17:630
-0.5,-0.14,9.87,-0.02,-0.01,-0.05,0.0,0.0,0.01,1393,2019-03-25 16:02:17:635
-0.5,-0.14,9.87,-0.02,-0.01,-0.05,0.0,0.0,0.01,1399,2019-03-25 16:02:17:641
-0.51,-0.09,9.92,-0.03,0.03,0.0,0.0,0.0,0.0,1402,2019-03-25 16:02:17:644
-0.51,-0.09,9.92,-0.03,0.03,0.0,0.0,0.0,0.0,1408,2019-03-25 16:02:17:650
-0.51,-0.09,9.92,-0.03,0.03,0.0,0.0,0.0,0.0,1414,2019-03-25 16:02:17:656
-0.51,-0.09,9.92,-0.03,0.03,0.0,0.0,0.0,0.0,1419,2019-03-25 16:02:17:661
-0.51,-0.09,9.92,-0.03,0.03,0.0,0.0,0.0,0.0,1423,2019-03-25 16:02:17:665
-0.49,-0.11,9.93,-0.01,0.0,0.0,0.0,0.0,0.0,1428,2019-03-25 16:02:17:670
-0.49,-0.11,9.93,-0.01,0.0,0.0,0.0,0.0,0.0,1433,2019-03-25 16:02:17:675
-0.49,-0.11,9.93,-0.01,0.0,0.0,0.0,0.0,0.0,1437,2019-03-25 16:02:17:679
-0.51,-0.1,9.91,-0.02,0.01,-0.01,0.0,0.0,0.0,1442,2019-03-25 16:02:17:684
-0.51,-0.1,9.91,-0.02,0.01,-0.01,0.0,0.0,0.0,1448,2019-03-25 16:02:17:690
-0.51,-0.1,9.91,-0.02,0.01,-0.01,0.0,0.0,0.0,1454,2019-03-25 16:02:17:696
-0.5,-0.11,9.95,-0.01,0.0,0.01,0.0,0.0,0.0,1458,2019-03-25 16:02:17:700
-0.5,-0.11,9.95,-0.01,0.0,0.01,0.0,0.0,0.0,1464,2019-03-25 16:02:17:706
-0.5,-0.11,9.95,-0.01,0.0,0.01,0.0,0.0,0.0,1469,2019-03-25 16:02:17:711
-0.51,-0.11,9.95,-0.02,0.0,0.02,0.0,0.0,0.01,1473,2019-03-25 16:02:17:715
-0.51,-0.11,9.95,-0.02,0.0,0.02,0.0,0.0,0.01,1478,2019-03-25 16:02:17:720
-0.51,-0.11,9.95,-0.02,0.0,0.02,0.0,0.0,0.01,1483,2019-03-25 16:02:17:725
-0.51,-0.11,9.95,-0.02,0.0,0.02,0.0,0.0,0.01,1488,2019-03-25 16:02:17:730
-0.51,-0.11,9.95,-0.02,0.0,0.02,0.0,0.0,0.01,1493,2019-03-25 16:02:17:735
-0.51,-0.11,9.95,-0.02,0.0,0.02,0.0,0.0,0.01,1499,2019-03-25 16:02:17:741
-0.49,-0.12,9.94,0.0,0.0,0.01,0.0,0.0,0.0,1503,2019-03-25 16:02:17:745
-0.49,-0.12,9.94,0.0,0.0,0.01,0.0,0.0,0.0,1509,2019-03-25 16:02:17:751
-0.49,-0.12,9.94,0.0,0.0,0.01,0.0,0.0,0.0,1513,2019-03-25 16:02:17:755
-0.51,-0.14,9.94,-0.01,-0.02,0.01,0.0,0.0,0.0,1519,2019-03-25 16:02:17:761
-0.51,-0.14,9.94,-0.01,-0.02,0.01,0.0,0.0,0.0,1523,2019-03-25 16:02:17:765
-0.51,-0.14,9.94,-0.01,-0.02,0.01,0.0,0.0,0.0,1529,2019-03-25 16:02:17:771
-0.51,-0.11,9.93,-0.01,0.0,0.0,0.0,0.0,0.0,1534,2019-03-25 16:02:17:776
-0.51,-0.11,9.93,-0.01,0.0,0.0,0.0,0.0,0.0,1540,2019-03-25 16:02:17:782
-0.51,-0.11,9.93,-0.01,0.0,0.0,0.0,0.0,0.0,1543,2019-03-25 16:02:17:785
-0.51,-0.11,9.93,-0.01,0.0,0.0,0.0,0.0,0.0,1548,2019-03-25 16:02:17:790
-0.51,-0.11,9.93,-0.01,0.0,0.0,0.0,0.0,0.0,1552,2019-03-25 16:02:17:794
-0.51,-0.11,9.94,-0.01,0.0,0.0,0.0,0.0,0.01,1558,2019-03-25 16:02:17:800
-0.51,-0.11,9.94,-0.01,0.0,0.0,0.0,0.0,0.01,1563,2019-03-25 16:02:17:805
-0.51,-0.11,9.94,-0.01,0.0,0.0,0.0,0.0,0.01,1568,2019-03-25 16:02:17:810
-0.47,-0.05,9.95,0.02,0.05,0.01,0.0,0.0,0.0,1574,2019-03-25 16:02:17:816
-0.47,-0.05,9.95,0.02,0.05,0.01,0.0,0.0,0.0,1578,2019-03-25 16:02:17:820
-0.47,-0.05,9.95,0.02,0.05,0.01,0.0,0.0,0.0,1584,2019-03-25 16:02:17:826
-0.47,-0.05,9.95,0.02,0.05,0.01,0.0,0.0,0.0,1588,2019-03-25 16:02:17:830
-0.47,-0.05,9.95,0.02,0.05,0.01,0.0,0.0,0.0,1593,2019-03-25 16:02:17:835
-0.51,-0.11,9.95,-0.02,0.0,0.01,0.0,0.0,0.0,1598,2019-03-25 16:02:17:840
-0.51,-0.11,9.95,-0.02,0.0,0.01,0.0,0.0,0.0,1603,2019-03-25 16:02:17:845
-0.51,-0.11,9.95,-0.02,0.0,0.01,0.0,0.0,0.0,1609,2019-03-25 16:02:17:851
-0.51,-0.11,9.95,-0.02,0.0,0.01,0.0,0.0,0.0,1613,2019-03-25 16:02:17:855
-0.51,-0.11,9.95,-0.02,0.0,0.01,0.0,0.0,0.0,1619,2019-03-25 16:02:17:861
-0.51,-0.11,9.95,-0.02,0.0,0.01,0.0,0.0,0.0,1623,2019-03-25 16:02:17:865
-0.51,-0.14,9.96,-0.01,-0.02,0.02,0.0,0.0,0.01,1628,2019-03-25 16:02:17:870
-0.51,-0.14,9.96,-0.01,-0.02,0.02,0.0,0.0,0.01,1633,2019-03-25 16:02:17:875
-0.51,-0.14,9.96,-0.01,-0.02,0.02,0.0,0.0,0.0,1639,2019-03-25 16:02:17:881
-0.51,-0.14,9.96,-0.01,-0.02,0.02,0.0,0.0,0.0,1644,2019-03-25 16:02:17:886
-0.51,-0.14,9.96,-0.01,-0.02,0.02,0.0,0.0,0.0,1648,2019-03-25 16:02:17:890
-0.5,-0.12,9.95,-0.01,-0.02,0.02,0.0,0.0,0.0,1654,2019-03-25 16:02:17:896
-0.5,-0.12,9.95,-0.01,0.0,0.01,0.0,0.0,0.0,1661,2019-03-25 16:02:17:903
-0.5,-0.12,9.95,-0.01,0.0,0.01,0.0,0.0,0.0,1664,2019-03-25 16:02:17:906
-0.5,-0.12,9.95,-0.01,0.0,0.01,0.0,0.0,0.0,1669,2019-03-25 16:02:17:911
-0.5,-0.12,9.95,-0.01,0.0,0.01,0.0,0.0,0.0,1673,2019-03-25 16:02:17:915
-0.49,-0.15,9.94,0.0,-0.02,0.0,0.0,0.0,0.0,1679,2019-03-25 16:02:17:921
-0.49,-0.15,9.94,0.0,-0.02,0.0,0.0,0.0,0.0,1683,2019-03-25 16:02:17:925
-0.49,-0.15,9.94,0.0,-0.02,0.0,0.0,0.0,0.0,1687,2019-03-25 16:02:17:929
-0.49,-0.15,9.94,0.0,-0.02,0.0,0.0,0.0,0.0,1694,2019-03-25 16:02:17:936
-0.49,-0.15,9.94,0.0,-0.02,0.0,0.0,0.0,0.0,1699,2019-03-25 16:02:17:941
-0.54,-0.14,9.92,-0.05,-0.01,-0.02,0.0,0.0,0.0,1703,2019-03-25 16:02:17:945
-0.54,-0.14,9.92,-0.05,-0.01,-0.02,0.0,0.0,0.0,1708,2019-03-25 16:02:17:950
-0.54,-0.14,9.92,-0.05,-0.01,-0.02,0.0,0.0,0.0,1714,2019-03-25 16:02:17:956
-0.49,-0.07,9.95,0.0,0.04,0.0,0.0,0.0,0.0,1719,2019-03-25 16:02:17:961
-0.49,-0.07,9.95,0.0,0.04,0.0,0.0,0.0,0.0,1723,2019-03-25 16:02:17:965
-0.49,-0.07,9.95,0.0,0.04,0.0,0.0,0.0,0.0,1728,2019-03-25 16:02:17:970
-0.49,-0.07,9.95,0.0,0.04,0.0,0.0,0.0,0.0,1733,2019-03-25 16:02:17:975
-0.52,-0.1,9.93,-0.02,0.01,-0.01,0.0,0.0,0.01,1739,2019-03-25 16:02:17:981
-0.52,-0.1,9.93,-0.02,0.01,-0.01,0.0,0.0,0.01,1743,2019-03-25 16:02:17:985
-0.52,-0.1,9.93,-0.02,0.01,-0.01,0.0,0.0,0.01,1748,2019-03-25 16:02:17:990
-0.52,-0.1,9.93,-0.02,0.01,-0.01,0.0,0.0,0.01,1754,2019-03-25 16:02:17:996
-0.52,-0.1,9.93,-0.02,0.01,-0.01,0.0,0.0,0.01,1759,2019-03-25 16:02:18:001
-0.52,-0.1,9.93,-0.02,0.01,-0.01,0.0,0.0,0.01,1763,2019-03-25 16:02:18:005
-0.46,-0.1,9.95,0.03,0.01,0.0,0.0,0.0,0.0,1772,2019-03-25 16:02:18:014
-0.46,-0.1,9.95,0.03,0.01,0.0,0.0,0.0,0.0,1773,2019-03-25 16:02:18:015
-0.46,-0.1,9.95,0.03,0.01,0.0,0.0,0.0,0.0,1778,2019-03-25 16:02:18:020
-0.46,-0.1,9.95,-0.02,0.0,0.0,0.0,0.0,0.0,1783,2019-03-25 16:02:18:025
-0.46,-0.1,9.95,-0.02,0.0,0.0,0.0,0.0,0.0,1789,2019-03-25 16:02:18:031
-0.46,-0.1,9.95,-0.02,0.0,0.0,0.0,0.0,0.0,1795,2019-03-25 16:02:18:037
-0.46,-0.1,9.95,-0.02,0.0,0.0,0.0,0.0,0.0,1798,2019-03-25 16:02:18:040
-0.49,-0.09,9.91,0.0,0.02,-0.03,0.0,0.0,0.01,1803,2019-03-25 16:02:18:045
-0.49,-0.09,9.91,0.0,0.02,-0.03,0.0,0.0,0.01,1808,2019-03-25 16:02:18:050
-0.49,-0.09,9.91,0.0,0.02,-0.03,0.0,0.0,0.01,1817,2019-03-25 16:02:18:059
-0.48,-0.12,9.93,0.0,0.0,0.0,0.0,0.0,0.01,1818,2019-03-25 16:02:18:060
-0.48,-0.12,9.93,0.0,0.0,0.0,0.0,0.0,0.01,1823,2019-03-25 16:02:18:065
-0.48,-0.12,9.93,0.0,0.0,0.0,0.0,0.0,0.01,1828,2019-03-25 16:02:18:070
-0.48,-0.12,9.93,0.0,0.0,0.0,0.0,0.0,0.01,1833,2019-03-25 16:02:18:075
-0.46,-0.1,9.96,0.02,0.01,0.02,0.0,0.0,0.0,1841,2019-03-25 16:02:18:083
-0.46,-0.1,9.96,0.02,0.01,0.02,0.0,0.0,0.0,1844,2019-03-25 16:02:18:086
-0.46,-0.1,9.96,0.02,0.01,0.02,0.0,0.0,0.0,1848,2019-03-25 16:02:18:090
-0.46,-0.1,9.96,0.02,0.01,0.02,0.0,0.0,0.0,1853,2019-03-25 16:02:18:095
-0.46,-0.1,9.96,0.02,0.01,0.02,0.0,0.0,0.0,1859,2019-03-25 16:02:18:101
-0.46,-0.1,9.96,0.02,0.01,0.02,0.0,0.0,0.0,1863,2019-03-25 16:02:18:105
-0.47,-0.1,9.97,0.01,0.01,0.02,0.0,0.0,0.0,1868,2019-03-25 16:02:18:110
-0.47,-0.1,9.97,0.01,0.01,0.02,0.0,0.0,0.0,1873,2019-03-25 16:02:18:115
-0.47,-0.1,9.97,0.01,0.01,0.02,0.0,0.0,0.0,1879,2019-03-25 16:02:18:121
-0.47,-0.1,9.97,0.01,0.01,0.02,0.0,0.0,0.0,1886,2019-03-25 16:02:18:128
-0.47,-0.1,9.97,0.01,0.01,0.02,0.0,0.0,0.0,1888,2019-03-25 16:02:18:130
-0.47,-0.1,9.97,0.01,0.01,0.02,0.0,0.0,0.0,1894,2019-03-25 16:02:18:136
-0.48,-0.14,9.92,0.01,-0.02,0.0,0.0,0.0,0.01,1898,2019-03-25 16:02:18:140
-0.48,-0.14,9.92,0.0,-0.02,0.0,0.0,0.0,0.01,1904,2019-03-25 16:02:18:146
-0.48,-0.14,9.92,0.0,-0.02,0.0,0.0,0.0,0.01,1910,2019-03-25 16:02:18:152
-0.48,-0.14,9.92,0.0,-0.02,0.0,0.0,0.0,0.01,1913,2019-03-25 16:02:18:155
-0.45,-0.13,9.94,0.03,0.0,0.0,0.0,0.0,0.0,1918,2019-03-25 16:02:18:160
-0.45,-0.13,9.94,0.03,0.0,0.0,0.0,0.0,0.0,1923,2019-03-25 16:02:18:165
-0.45,-0.13,9.94,0.03,0.0,0.0,0.0,0.0,0.0,1928,2019-03-25 16:02:18:170
-0.45,-0.13,9.94,0.03,0.0,0.0,0.0,0.0,0.0,1935,2019-03-25 16:02:18:177
-0.45,-0.13,9.94,0.03,0.0,0.0,0.0,0.0,0.0,1940,2019-03-25 16:02:18:182
-0.45,-0.13,9.94,0.03,0.0,0.0,0.0,0.0,0.0,1944,2019-03-25 16:02:18:186
-0.45,-0.13,9.94,0.03,0.0,0.0,0.0,0.0,0.0,1948,2019-03-25 16:02:18:190
-0.51,-0.15,9.92,-0.02,-0.02,-0.01,0.0,0.0,0.0,1956,2019-03-25 16:02:18:198
-0.51,-0.15,9.92,-0.02,-0.02,-0.01,0.0,0.0,0.0,1960,2019-03-25 16:02:18:202
-0.51,-0.15,9.92,-0.02,-0.02,-0.01,0.0,0.0,0.0,1964,2019-03-25 16:02:18:206
-0.51,-0.15,9.92,-0.02,-0.02,-0.01,0.0,0.0,0.0,1969,2019-03-25 16:02:18:211
-0.51,-0.15,9.92,-0.02,-0.02,-0.01,0.0,0.0,0.0,1973,2019-03-25 16:02:18:215
-0.45,-0.1,9.95,0.04,0.01,0.01,0.0,0.0,0.0,1981,2019-03-25 16:02:18:223
-0.45,-0.1,9.95,0.04,0.01,0.01,0.0,0.0,0.0,1984,2019-03-25 16:02:18:226
-0.45,-0.1,9.95,0.04,0.01,0.01,0.0,0.0,0.0,1990,2019-03-25 16:02:18:232
-0.45,-0.1,9.95,0.04,0.01,0.01,0.0,0.0,0.0,1994,2019-03-25 16:02:18:236
-0.45,-0.1,9.95,0.04,0.01,0.01,0.0,0.0,0.0,1998,2019-03-25 16:02:18:240
-0.49,-0.1,9.93,0.0,0.01,0.0,0.0,0.0,0.0,2003,2019-03-25 16:02:18:245
-0.49,-0.1,9.93,0.0,0.01,0.0,0.0,0.0,0.0,2008,2019-03-25 16:02:18:250
-0.49,-0.1,9.93,0.0,0.01,0.0,0.0,0.0,0.0,2014,2019-03-25 16:02:18:256
-0.52,-0.11,9.96,-0.02,0.0,0.01,0.0,0.0,0.0,2018,2019-03-25 16:02:18:260
-0.52,-0.11,9.96,-0.02,0.0,0.01,0.0,0.0,0.0,2023,2019-03-25 16:02:18:265
-0.52,-0.11,9.96,-0.02,0.0,0.01,0.0,0.0,0.0,2030,2019-03-25 16:02:18:272
-0.52,-0.11,9.96,-0.02,0.0,0.01,0.0,0.0,0.0,2033,2019-03-25 16:02:18:275
-0.5,-0.08,9.9,-0.01,0.03,-0.04,0.0,0.0,0.0,2040,2019-03-25 16:02:18:282
-0.5,-0.08,9.9,-0.01,0.03,-0.04,0.0,0.0,0.0,2043,2019-03-25 16:02:18:285
-0.5,-0.08,9.9,-0.01,0.03,-0.04,0.0,0.0,0.0,2049,2019-03-25 16:02:18:291
-0.48,-0.1,9.94,-0.01,0.03,-0.04,0.0,0.0,0.0,2053,2019-03-25 16:02:18:295
-0.48,-0.1,9.94,0.0,0.01,0.0,0.0,0.0,0.0,2059,2019-03-25 16:02:18:301
-0.48,-0.1,9.94,0.0,0.01,0.0,0.0,0.0,0.0,2064,2019-03-25 16:02:18:306
-0.48,-0.1,9.94,0.0,0.01,0.0,0.0,0.0,0.0,2068,2019-03-25 16:02:18:310
-0.48,-0.1,9.94,0.0,0.01,0.0,0.0,0.0,0.0,2073,2019-03-25 16:02:18:315
-0.47,-0.14,9.96,0.0,0.01,0.0,0.0,0.0,0.01,2079,2019-03-25 16:02:18:321
-0.47,-0.14,9.96,0.0,0.01,0.0,0.0,0.0,0.01,2083,2019-03-25 16:02:18:325
-0.47,-0.14,9.96,0.01,-0.02,0.01,0.0,0.0,0.0,2089,2019-03-25 16:02:18:331
-0.47,-0.14,9.96,0.01,-0.02,0.01,0.0,0.0,0.0,2095,2019-03-25 16:02:18:337
-0.47,-0.14,9.96,0.01,-0.02,0.01,0.0,0.0,0.0,2098,2019-03-25 16:02:18:340
-0.47,-0.09,9.93,0.01,0.01,0.0,0.0,0.0,0.01,2103,2019-03-25 16:02:18:345
-0.47,-0.09,9.93,0.01,0.01,0.0,0.0,0.0,0.01,2110,2019-03-25 16:02:18:352
-0.47,-0.09,9.93,0.01,0.01,0.0,0.0,0.0,0.01,2113,2019-03-25 16:02:18:355
-0.52,-0.15,9.92,-0.03,-0.03,-0.02,0.0,0.0,0.01,2121,2019-03-25 16:02:18:363
-0.52,-0.15,9.92,-0.03,-0.03,-0.02,0.0,0.0,0.01,2123,2019-03-25 16:02:18:365
-0.52,-0.15,9.92,-0.03,-0.03,-0.02,0.0,0.0,0.01,2129,2019-03-25 16:02:18:371
-0.52,-0.15,9.92,-0.03,-0.03,-0.02,0.0,0.0,0.01,2134,2019-03-25 16:02:18:376
-0.56,-0.12,9.9,-0.07,0.0,-0.03,0.0,0.0,0.01,2140,2019-03-25 16:02:18:382
-0.56,-0.12,9.9,-0.07,0.0,-0.03,0.0,0.0,0.01,2144,2019-03-25 16:02:18:386
-0.56,-0.12,9.9,-0.07,0.0,-0.03,0.0,0.0,0.01,2148,2019-03-25 16:02:18:390
-0.56,-0.12,9.9,-0.07,0.0,-0.03,0.0,0.0,0.01,2153,2019-03-25 16:02:18:395
-0.56,-0.12,9.9,-0.07,0.0,-0.03,0.0,0.0,0.01,2159,2019-03-25 16:02:18:401
-0.56,-0.12,9.9,-0.07,0.0,-0.03,0.0,0.0,0.01,2163,2019-03-25 16:02:18:405
-0.53,-0.1,9.94,-0.03,0.01,0.0,0.0,0.0,0.0,2171,2019-03-25 16:02:18:413
-0.53,-0.1,9.94,-0.03,0.01,0.0,0.0,0.0,0.0,2173,2019-03-25 16:02:18:415
-0.53,-0.1,9.94,-0.03,0.01,0.0,0.0,0.0,0.0,2178,2019-03-25 16:02:18:420
-0.53,-0.1,9.94,-0.03,0.01,0.0,0.0,0.0,0.0,2184,2019-03-25 16:02:18:426
-0.5,-0.11,9.96,0.0,0.0,0.03,0.0,0.0,0.01,2191,2019-03-25 16:02:18:433
-0.5,-0.11,9.96,0.0,0.0,0.03,0.0,0.0,0.01,2193,2019-03-25 16:02:18:435
-0.5,-0.11,9.96,0.0,0.0,0.03,0.0,0.0,0.01,2199,2019-03-25 16:02:18:441
-0.46,-0.12,10.11,0.0,-0.03,0.03,0.0,-0.02,0.0,2204,2019-03-25 16:02:18:446
-0.52,-0.13,9.97,-0.01,-0.01,0.02,0.0,0.0,0.0,2219,2019-03-25 16:02:18:461
-0.52,-0.13,9.97,-0.01,-0.01,0.02,0.0,0.0,0.0,2219,2019-03-25 16:02:18:461
-0.52,-0.13,9.97,-0.01,-0.01,0.02,0.0,0.0,0.0,2220,2019-03-25 16:02:18:462
-0.52,-0.13,9.97,-0.01,-0.01,0.02,0.0,0.0,0.0,2223,2019-03-25 16:02:18:465
-0.52,-0.13,9.97,-0.01,-0.01,0.02,0.0,0.0,0.0,2228,2019-03-25 16:02:18:470
-0.52,-0.13,9.97,-0.01,-0.01,0.02,0.0,0.0,0.0,2233,2019-03-25 16:02:18:475
-0.51,-0.1,9.93,0.0,0.01,0.0,0.0,0.03,0.0,2239,2019-03-25 16:02:18:481
-0.51,-0.1,9.93,0.0,0.01,0.0,0.0,0.03,0.0,2242,2019-03-25 16:02:18:484
-0.51,-0.1,9.93,0.0,0.01,0.0,0.0,0.03,0.0,2248,2019-03-25 16:02:18:490
-0.49,-0.14,9.95,0.01,-0.01,0.01,0.0,-0.01,0.0,2258,2019-03-25 16:02:18:500
-0.49,-0.14,9.95,0.01,-0.01,0.01,0.0,-0.01,0.0,2259,2019-03-25 16:02:18:501
-0.49,-0.14,9.95,0.01,-0.01,0.01,0.0,-0.01,0.0,2263,2019-03-25 16:02:18:505
-0.49,-0.14,9.95,0.01,-0.01,0.01,0.0,-0.01,0.0,2268,2019-03-25 16:02:18:510
-0.49,-0.14,9.95,0.01,-0.01,0.01,0.0,-0.01,0.0,2273,2019-03-25 16:02:18:515
-0.49,-0.14,9.95,0.01,-0.01,0.01,0.0,-0.01,0.0,2278,2019-03-25 16:02:18:520
-0.49,-0.14,9.95,0.01,-0.01,0.01,0.0,-0.01,0.0,2283,2019-03-25 16:02:18:525
-0.46,-0.08,9.94,0.05,0.03,0.0,0.0,0.0,0.01,2288,2019-03-25 16:02:18:530
-0.46,-0.08,9.94,0.05,0.03,0.0,0.0,0.0,0.01,2293,2019-03-25 16:02:18:535
-0.46,-0.08,9.94,0.05,0.03,0.0,0.0,0.0,0.01,2298,2019-03-25 16:02:18:540
-0.51,-0.12,9.91,0.0,0.0,-0.02,0.0,0.01,0.0,2303,2019-03-25 16:02:18:545
-0.51,-0.12,9.91,0.0,0.0,-0.02,0.0,0.01,0.0,2308,2019-03-25 16:02:18:550
-0.51,-0.12,9.91,0.0,0.0,-0.02,0.0,0.01,0.0,2313,2019-03-25 16:02:18:555
-0.51,-0.12,9.91,0.0,0.0,-0.02,0.0,0.01,0.0,2320,2019-03-25 16:02:18:562
-0.51,-0.12,9.91,0.0,0.0,-0.02,0.0,0.01,0.0,2322,2019-03-25 16:02:18:564
-0.5,-0.13,9.97,0.0,-0.01,0.03,0.0,0.0,0.01,2329,2019-03-25 16:02:18:571
-0.5,-0.13,9.97,0.0,-0.01,0.03,0.0,0.0,0.01,2333,2019-03-25 16:02:18:575
-0.48,-0.12,9.93,0.0,-0.01,0.03,0.0,0.0,0.0,2338,2019-03-25 16:02:18:580
-0.48,-0.12,9.93,0.0,-0.01,0.03,0.0,0.0,0.0,2344,2019-03-25 16:02:18:586
-0.48,-0.12,9.93,0.0,-0.01,0.03,0.0,0.0,0.0,2349,2019-03-25 16:02:18:591
-0.47,-0.1,9.92,0.02,0.01,-0.02,0.0,0.0,0.01,2353,2019-03-25 16:02:18:595
-0.47,-0.1,9.92,0.02,0.01,-0.02,0.0,0.0,0.01,2358,2019-03-25 16:02:18:600
-0.47,-0.1,9.92,0.02,0.01,-0.02,0.0,0.0,0.01,2364,2019-03-25 16:02:18:606
-0.47,-0.1,9.92,0.02,0.01,-0.02,0.0,0.0,0.01,2368,2019-03-25 16:02:18:610
-0.5,-0.09,9.94,0.0,0.02,0.0,0.0,0.0,0.01,2374,2019-03-25 16:02:18:616
-0.5,-0.09,9.94,0.0,0.02,0.0,0.0,0.0,0.01,2380,2019-03-25 16:02:18:622
-0.5,-0.09,9.94,0.0,0.02,0.0,0.0,0.0,0.01,2383,2019-03-25 16:02:18:625
-0.5,-0.09,9.94,0.0,0.02,0.0,0.0,0.0,0.01,2389,2019-03-25 16:02:18:631
-0.5,-0.09,9.94,0.0,0.02,0.0,0.0,0.0,0.01,2393,2019-03-25 16:02:18:635
-0.5,-0.09,9.94,0.0,0.02,0.0,0.0,0.0,0.01,2398,2019-03-25 16:02:18:640
-0.53,-0.11,9.97,-0.03,0.0,0.03,0.0,0.0,0.0,2403,2019-03-25 16:02:18:645
-0.53,-0.11,9.97,-0.03,0.0,0.03,0.0,0.0,0.0,2410,2019-03-25 16:02:18:652
-0.53,-0.11,9.97,-0.03,0.0,0.03,0.0,0.0,0.0,2416,2019-03-25 16:02:18:658
-0.53,-0.11,9.97,-0.03,0.0,0.03,0.0,0.0,0.0,2418,2019-03-25 16:02:18:660
-0.49,-0.08,9.97,-0.03,0.0,0.03,0.0,0.0,0.0,2423,2019-03-25 16:02:18:665
-0.49,-0.08,9.97,0.0,0.02,0.04,0.0,0.0,0.0,2428,2019-03-25 16:02:18:670
-0.49,-0.08,9.97,0.0,0.02,0.04,0.0,0.0,0.0,2433,2019-03-25 16:02:18:675
-0.45,-0.12,9.97,0.0,0.02,0.04,0.0,0.0,0.0,2440,2019-03-25 16:02:18:682
-0.45,-0.12,9.97,0.0,0.02,0.04,0.0,0.0,0.0,2443,2019-03-25 16:02:18:685
-0.45,-0.12,9.97,0.0,0.02,0.04,0.0,0.0,0.0,2448,2019-03-25 16:02:18:690
-0.49,-0.1,9.94,0.0,0.0,0.0,0.0,0.0,0.0,2453,2019-03-25 16:02:18:695
-0.49,-0.1,9.94,0.0,0.0,0.0,0.0,0.0,0.0,2458,2019-03-25 16:02:18:700
-0.49,-0.1,9.94,0.0,0.0,0.0,0.0,0.0,0.0,2465,2019-03-25 16:02:18:707
-0.49,-0.1,9.94,0.0,0.0,0.0,0.0,0.0,0.0,2468,2019-03-25 16:02:18:710
-0.49,-0.1,9.94,0.0,0.0,0.0,0.0,0.0,0.0,2473,2019-03-25 16:02:18:715
-0.49,-0.12,10.0,0.0,-0.01,0.05,0.0,0.0,0.0,2478,2019-03-25 16:02:18:720
-0.49,-0.12,10.0,0.0,-0.01,0.05,0.0,0.0,0.0,2483,2019-03-25 16:02:18:725
-0.49,-0.12,10.0,0.0,-0.01,0.05,0.0,0.0,0.0,2488,2019-03-25 16:02:18:730
-0.49,-0.12,10.0,0.0,-0.01,0.05,0.0,0.0,0.0,2493,2019-03-25 16:02:18:735
-0.49,-0.12,10.0,0.0,-0.01,0.05,0.0,0.0,0.0,2498,2019-03-25 16:02:18:740
-0.49,-0.12,10.0,0.0,-0.01,0.05,0.0,0.0,0.0,2503,2019-03-25 16:02:18:745
-0.52,-0.12,9.91,-0.03,0.0,-0.03,0.0,0.01,0.01,2508,2019-03-25 16:02:18:750
-0.52,-0.12,9.91,-0.03,0.0,-0.03,0.0,0.0,0.0,2514,2019-03-25 16:02:18:756
-0.52,-0.12,9.91,-0.03,0.0,-0.03,0.0,0.0,0.0,2517,2019-03-25 16:02:18:759
-0.52,-0.12,9.91,-0.03,0.0,-0.03,0.0,0.0,0.0,2523,2019-03-25 16:02:18:765
-0.52,-0.12,9.91,-0.03,0.0,-0.03,0.0,0.0,0.0,2529,2019-03-25 16:02:18:771
-0.52,-0.12,9.91,-0.03,0.0,-0.03,0.0,0.0,0.0,2533,2019-03-25 16:02:18:775
-0.52,-0.12,9.91,-0.03,0.0,-0.03,0.0,0.0,0.0,2538,2019-03-25 16:02:18:780
-0.52,-0.12,9.91,-0.03,0.0,-0.03,0.0,0.0,0.0,2544,2019-03-25 16:02:18:786
-0.45,-0.11,10.03,0.03,0.0,0.09,0.0,-0.03,0.0,2548,2019-03-25 16:02:18:790
-0.45,-0.11,10.03,0.03,0.0,0.09,0.0,-0.03,0.0,2553,2019-03-25 16:02:18:795
-0.45,-0.11,10.03,0.03,0.0,0.09,0.0,-0.03,0.0,2558,2019-03-25 16:02:18:800
-0.45,-0.11,10.03,0.03,0.0,0.09,0.0,-0.03,0.0,2564,2019-03-25 16:02:18:806
-0.52,-0.14,9.95,-0.03,-0.02,0.0,0.0,0.01,0.0,2571,2019-03-25 16:02:18:813
-0.52,-0.14,9.95,-0.03,-0.02,0.0,0.0,0.01,0.0,2573,2019-03-25 16:02:18:815
-0.52,-0.14,9.95,-0.03,-0.02,0.0,0.0,0.01,0.0,2578,2019-03-25 16:02:18:820
-0.52,-0.14,9.95,0.02,0.0,0.0,0.0,-0.02,0.0,2584,2019-03-25 16:02:18:826
-0.52,-0.14,9.95,0.02,0.0,0.0,0.0,-0.02,0.0,2587,2019-03-25 16:02:18:829
-0.52,-0.14,9.95,0.02,0.0,0.0,0.0,-0.02,0.0,2594,2019-03-25 16:02:18:836
-0.52,-0.14,9.95,0.02,0.0,0.0,0.0,-0.02,0.0,2599,2019-03-25 16:02:18:841
-0.48,-0.13,9.98,0.02,0.0,0.0,0.0,-0.02,0.0,2604,2019-03-25 16:02:18:846
-0.48,-0.13,9.98,0.0,-0.01,0.03,0.0,-0.02,0.0,2610,2019-03-25 16:02:18:852
-0.48,-0.13,9.98,0.0,-0.01,0.03,0.0,-0.02,0.0,2613,2019-03-25 16:02:18:855
-0.48,-0.13,9.98,0.0,-0.01,0.03,0.0,-0.02,0.0,2618,2019-03-25 16:02:18:860
-0.48,-0.13,9.98,0.0,-0.01,0.03,0.0,-0.02,0.0,2623,2019-03-25 16:02:18:865
-0.46,-0.1,10.06,0.02,0.01,0.09,0.0,0.0,0.0,2628,2019-03-25 16:02:18:870
-0.46,-0.1,10.06,0.02,0.01,0.09,0.0,0.0,0.0,2633,2019-03-25 16:02:18:875
-0.51,-0.13,9.79,0.02,0.01,0.09,0.0,0.05,0.0,2638,2019-03-25 16:02:18:880
-0.51,-0.13,9.79,0.02,0.01,0.09,0.0,0.05,0.0,2643,2019-03-25 16:02:18:885
-0.51,-0.13,9.79,0.02,0.01,0.09,0.0,0.05,0.0,2648,2019-03-25 16:02:18:890
-0.51,-0.13,9.79,0.02,0.01,0.09,0.0,0.05,0.0,2653,2019-03-25 16:02:18:895
-0.49,-0.14,9.94,0.0,-0.02,0.0,0.0,-0.02,0.0,2658,2019-03-25 16:02:18:900
-0.49,-0.14,9.94,0.0,-0.02,0.0,0.0,-0.02,0.0,2663,2019-03-25 16:02:18:905
-0.49,-0.14,9.94,0.0,-0.02,0.0,0.0,-0.02,0.0,2668,2019-03-25 16:02:18:910
-0.49,-0.14,9.94,0.0,-0.02,0.0,0.0,-0.02,0.0,2672,2019-03-25 16:02:18:914
-0.51,-0.12,10.02,-0.02,0.0,0.08,0.0,0.0,0.0,2678,2019-03-25 16:02:18:920
-0.51,-0.12,10.02,-0.02,0.0,0.08,0.0,0.0,0.0,2683,2019-03-25 16:02:18:925
-0.51,-0.12,10.02,-0.02,0.0,0.08,0.0,0.0,0.0,2688,2019-03-25 16:02:18:930
-0.51,-0.12,10.02,-0.02,0.0,0.08,0.0,0.0,0.0,2693,2019-03-25 16:02:18:935
-0.51,-0.12,10.02,-0.02,0.0,0.08,0.0,0.0,0.0,2699,2019-03-25 16:02:18:941
-0.49,-0.1,9.91,-0.02,0.0,0.08,0.0,0.0,0.0,2704,2019-03-25 16:02:18:946
-0.49,-0.1,9.91,0.0,0.01,-0.03,0.0,0.02,0.01,2707,2019-03-25 16:02:18:949
-0.49,-0.1,9.91,0.0,0.01,-0.03,0.0,0.02,0.01,2713,2019-03-25 16:02:18:955
-0.49,-0.1,9.91,-0.03,0.02,0.0,0.0,0.0,0.01,2718,2019-03-25 16:02:18:960
-0.49,-0.1,9.91,-0.03,0.02,0.0,0.0,0.0,0.01,2723,2019-03-25 16:02:18:965
-0.49,-0.1,9.91,-0.03,0.02,0.0,0.0,0.0,0.01,2728,2019-03-25 16:02:18:970
-0.49,-0.1,9.91,-0.03,0.02,0.0,0.0,0.0,0.01,2733,2019-03-25 16:02:18:975
-0.43,-0.11,9.94,0.05,0.0,0.0,0.0,-0.01,0.01,2738,2019-03-25 16:02:18:980
-0.43,-0.11,9.94,0.05,0.0,0.0,0.0,-0.01,0.01,2743,2019-03-25 16:02:18:985
-0.43,-0.11,9.94,0.05,0.0,0.0,0.0,-0.01,0.01,2748,2019-03-25 16:02:18:990
-0.43,-0.11,9.94,0.05,0.0,0.0,0.0,-0.01,0.01,2753,2019-03-25 16:02:18:995
-0.43,-0.11,9.94,0.05,0.0,0.0,0.0,-0.01,0.01,2758,2019-03-25 16:02:19:000
-0.43,-0.11,9.94,0.05,0.0,0.0,0.0,-0.01,0.01,2763,2019-03-25 16:02:19:005
-0.49,-0.08,9.97,0.0,0.02,0.03,0.0,-0.01,0.01,2768,2019-03-25 16:02:19:010
-0.49,-0.08,9.97,0.0,0.02,0.03,0.0,-0.01,0.01,2776,2019-03-25 16:02:19:018
-0.49,-0.08,9.97,0.0,0.02,0.03,0.0,-0.01,0.01,2778,2019-03-25 16:02:19:020
-0.49,-0.08,9.97,0.0,0.02,0.03,0.0,-0.01,0.01,2783,2019-03-25 16:02:19:025
-0.49,-0.08,9.97,-0.02,0.01,0.05,0.0,0.02,0.01,2788,2019-03-25 16:02:19:030
-0.49,-0.08,9.97,-0.02,0.01,0.05,0.0,0.02,0.01,2793,2019-03-25 16:02:19:035
-0.49,-0.08,9.97,-0.02,0.01,0.05,0.0,0.02,0.01,2799,2019-03-25 16:02:19:041
-0.51,-0.1,9.91,-0.03,0.0,-0.03,0.0,0.0,0.01,2804,2019-03-25 16:02:19:046
-0.51,-0.1,9.91,-0.03,0.0,-0.03,0.0,0.0,0.01,2808,2019-03-25 16:02:19:050
-0.51,-0.1,9.91,-0.03,0.0,-0.03,0.0,0.0,0.01,2814,2019-03-25 16:02:19:056
-0.51,-0.1,9.91,-0.03,0.0,-0.03,0.0,0.0,0.01,2818,2019-03-25 16:02:19:060
-0.47,-0.1,9.91,0.02,0.0,-0.02,0.0,0.01,0.0,2823,2019-03-25 16:02:19:065
-0.47,-0.1,9.91,0.02,0.0,-0.02,0.0,0.01,0.0,2828,2019-03-25 16:02:19:070
-0.47,-0.1,9.91,0.02,0.0,-0.02,0.0,0.01,0.0,2832,2019-03-25 16:02:19:074
-0.48,-0.1,9.99,0.0,0.0,0.04,0.0,0.0,0.0,2839,2019-03-25 16:02:19:081
-0.48,-0.1,9.99,0.0,0.0,0.04,0.0,0.0,0.0,2843,2019-03-25 16:02:19:085
-0.48,-0.1,9.99,0.0,0.0,0.04,0.0,0.0,0.0,2849,2019-03-25 16:02:19:091
-0.47,-0.12,9.99,0.0,0.0,0.04,0.0,0.01,0.0,2853,2019-03-25 16:02:19:095
-0.47,-0.12,9.99,0.01,-0.01,0.04,0.0,0.01,0.0,2860,2019-03-25 16:02:19:102
-0.47,-0.12,9.99,0.01,-0.01,0.04,0.0,0.01,0.0,2863,2019-03-25 16:02:19:105
-0.47,-0.12,9.99,0.01,-0.01,0.04,0.0,0.01,0.0,2869,2019-03-25 16:02:19:111
-0.51,-0.11,9.94,0.01,-0.01,0.04,0.0,0.01,0.0,2873,2019-03-25 16:02:19:115
-0.51,-0.11,9.94,-0.02,0.0,0.0,0.0,0.01,0.0,2879,2019-03-25 16:02:19:121
-0.51,-0.11,9.94,-0.02,0.0,0.0,0.0,0.01,0.0,2884,2019-03-25 16:02:19:126
-0.51,-0.11,9.94,-0.02,0.0,0.0,0.0,0.01,0.0,2889,2019-03-25 16:02:19:131
-0.51,-0.11,9.94,-0.02,0.0,0.0,0.0,0.01,0.0,2896,2019-03-25 16:02:19:138
-0.51,-0.11,9.98,-0.02,0.0,0.03,0.0,0.01,0.0,2899,2019-03-25 16:02:19:141
-0.51,-0.11,9.98,-0.02,0.0,0.03,0.0,0.01,0.0,2905,2019-03-25 16:02:19:147
-0.51,-0.11,9.98,-0.02,0.0,0.03,0.0,0.01,0.0,2910,2019-03-25 16:02:19:152
-0.51,-0.11,9.98,-0.02,0.0,0.03,0.0,0.01,0.0,2912,2019-03-25 16:02:19:154
-0.42,-0.18,9.95,0.06,-0.06,0.0,0.0,0.02,0.0,2919,2019-03-25 16:02:19:161
-0.42,-0.18,9.95,0.06,-0.06,0.0,0.0,0.02,0.0,2923,2019-03-25 16:02:19:165
-0.42,-0.18,9.95,0.06,-0.06,0.0,0.0,0.02,0.0,2929,2019-03-25 16:02:19:171
-0.42,-0.18,9.95,0.06,-0.06,0.0,0.0,0.02,0.0,2933,2019-03-25 16:02:19:175
-0.26,-0.39,9.88,0.19,-0.23,-0.06,0.0,-0.02,0.13,2938,2019-03-25 16:02:19:180
-0.26,-0.39,9.88,0.19,-0.23,-0.06,0.0,-0.02,0.13,2945,2019-03-25 16:02:19:187
-0.26,-0.39,9.88,0.19,-0.23,-0.06,0.0,-0.02,0.13,2949,2019-03-25 16:02:19:191
-0.26,-0.39,9.88,0.19,-0.23,-0.06,0.0,-0.02,0.13,2953,2019-03-25 16:02:19:195
-0.51,-0.12,10.04,-0.08,0.03,0.09,0.0,-0.1,0.39,2958,2019-03-25 16:02:19:200
-0.51,-0.12,10.04,-0.08,0.03,0.09,0.0,-0.1,0.39,2964,2019-03-25 16:02:19:206
-0.51,-0.12,10.04,-0.08,0.03,0.09,0.0,-0.1,0.39,2969,2019-03-25 16:02:19:211
-0.51,-0.12,10.04,-0.08,0.03,0.09,0.0,-0.1,0.39,2973,2019-03-25 16:02:19:215
-0.45,-0.09,9.96,-0.05,0.07,0.01,0.0,-0.09,0.51,2979,2019-03-25 16:02:19:221
-0.45,-0.09,9.96,-0.05,0.07,0.01,0.0,-0.09,0.51,2983,2019-03-25 16:02:19:225
-0.45,-0.09,9.96,-0.05,0.07,0.01,0.0,-0.09,0.51,2989,2019-03-25 16:02:19:231
-0.45,-0.09,9.96,-0.05,0.07,0.01,0.0,-0.09,0.51,2994,2019-03-25 16:02:19:236
-0.54,0.03,10.17,-0.14,0.18,0.21,0.0,-0.07,0.56,2999,2019-03-25 16:02:19:241
-0.54,0.03,10.17,-0.14,0.18,0.21,0.0,-0.07,0.56,3007,2019-03-25 16:02:19:249
-0.54,0.03,10.17,-0.14,0.18,0.21,0.0,-0.07,0.56,3008,2019-03-25 16:02:19:250
-0.54,0.03,10.17,-0.14,0.18,0.21,0.0,-0.07,0.56,3013,2019-03-25 16:02:19:255
-0.46,-0.06,10.15,-0.05,0.08,0.16,0.0,0.11,0.38,3018,2019-03-25 16:02:19:260
-0.46,-0.06,10.15,-0.05,0.08,0.16,0.0,0.11,0.38,3023,2019-03-25 16:02:19:265
-0.46,-0.06,10.15,-0.05,0.08,0.16,0.0,0.11,0.38,3028,2019-03-25 16:02:19:270
-0.46,-0.06,10.15,-0.05,0.08,0.16,0.0,0.11,0.38,3033,2019-03-25 16:02:19:275
-0.46,-0.06,10.15,-0.05,0.08,0.16,0.0,0.11,0.38,3039,2019-03-25 16:02:19:281
-0.46,-0.06,10.15,-0.05,0.08,0.16,0.0,0.11,0.38,3043,2019-03-25 16:02:19:285
-0.46,-0.06,10.15,-0.05,0.08,0.16,0.0,0.11,0.38,3048,2019-03-25 16:02:19:290
-0.57,-0.29,9.52,-0.11,-0.14,-0.43,0.0,0.21,0.33,3053,2019-03-25 16:02:19:295
-0.57,-0.29,9.52,-0.11,-0.14,-0.43,0.0,0.21,0.33,3058,2019-03-25 16:02:19:300
-0.57,-0.29,9.52,-0.11,-0.14,-0.43,0.0,0.21,0.33,3063,2019-03-25 16:02:19:305
-0.57,-0.29,9.52,-0.11,-0.14,-0.43,0.0,0.21,0.33,3070,2019-03-25 16:02:19:312
-0.57,-0.29,9.52,-0.11,-0.14,-0.43,0.0,0.21,0.33,3073,2019-03-25 16:02:19:315
-0.49,0.01,10.45,-0.06,0.14,0.49,0.0,-0.19,0.28,3079,2019-03-25 16:02:19:321
-0.49,0.01,10.45,-0.06,0.14,0.49,0.0,-0.19,0.28,3083,2019-03-25 16:02:19:325
-0.49,0.01,10.45,-0.06,0.14,0.49,0.0,-0.19,0.28,3088,2019-03-25 16:02:19:330
-0.49,0.01,10.45,-0.06,0.14,0.49,0.0,-0.19,0.28,3095,2019-03-25 16:02:19:337
-0.49,0.01,10.45,-0.06,0.14,0.49,0.0,-0.19,0.28,3099,2019-03-25 16:02:19:341
-0.54,-0.15,9.9,-0.1,-0.02,-0.06,0.0,0.07,0.19,3106,2019-03-25 16:02:19:348
-0.54,-0.15,9.9,-0.1,-0.02,-0.06,0.0,0.07,0.19,3108,2019-03-25 16:02:19:350
-0.54,-0.15,9.9,-0.1,-0.02,-0.06,0.0,0.07,0.19,3113,2019-03-25 16:02:19:355
-0.24,-0.65,10.0,0.19,-0.47,0.03,0.0,0.04,0.1,3118,2019-03-25 16:02:19:360
-0.24,-0.65,10.0,0.19,-0.47,0.03,0.0,0.04,0.1,3123,2019-03-25 16:02:19:365
-0.24,-0.65,10.0,0.19,-0.47,0.03,0.0,0.04,0.1,3128,2019-03-25 16:02:19:370
-0.24,-0.65,10.0,0.19,-0.47,0.03,0.0,0.04,0.1,3133,2019-03-25 16:02:19:375
-0.79,-0.12,10.45,-0.3,0.02,0.43,0.0,0.05,0.12,3138,2019-03-25 16:02:19:380
-0.79,-0.12,10.45,-0.3,0.02,0.43,0.0,0.05,0.12,3143,2019-03-25 16:02:19:385
-0.79,-0.12,10.45,-0.3,0.02,0.43,0.0,0.05,0.12,3148,2019-03-25 16:02:19:390
-0.84,-0.19,10.27,-0.25,-0.03,0.21,0.0,0.39,0.22,3155,2019-03-25 16:02:19:397
-0.84,-0.19,10.27,-0.25,-0.03,0.21,0.0,0.39,0.22,3158,2019-03-25 16:02:19:400
-0.84,-0.19,10.27,-0.25,-0.03,0.21,0.0,0.39,0.22,3163,2019-03-25 16:02:19:405
-0.84,-0.19,10.27,-0.25,-0.03,0.21,0.0,0.39,0.22,3168,2019-03-25 16:02:19:410
-0.84,-0.42,10.06,-0.25,-0.03,0.21,-0.02,0.75,0.32,3173,2019-03-25 16:02:19:415
-1.97,-0.42,10.06,-1.1,-0.24,0.0,-0.02,0.75,0.32,3178,2019-03-25 16:02:19:420
-1.97,-0.42,10.06,-1.1,-0.24,0.0,-0.02,0.75,0.32,3183,2019-03-25 16:02:19:425
-1.97,-0.42,10.06,-1.1,-0.24,0.0,-0.02,0.75,0.32,3188,2019-03-25 16:02:19:430
-1.97,-0.42,10.06,-1.1,-0.24,0.0,-0.02,0.75,0.32,3193,2019-03-25 16:02:19:435
-1.97,-0.42,10.06,-1.1,-0.24,0.0,-0.02,0.75,0.32,3198,2019-03-25 16:02:19:440
-1.33,-0.31,8.26,-0.28,-0.07,-1.57,-0.05,0.59,0.47,3205,2019-03-25 16:02:19:447
-1.33,-0.31,8.26,-0.28,-0.07,-1.57,-0.05,0.59,0.47,3208,2019-03-25 16:02:19:450
-1.33,-0.31,8.26,-0.28,-0.07,-1.57,-0.05,0.59,0.47,3212,2019-03-25 16:02:19:454
-0.49,-0.87,10.5,0.52,-0.59,0.62,0.01,-0.48,0.57,3218,2019-03-25 16:02:19:460
-0.49,-0.87,10.5,0.52,-0.59,0.62,0.01,-0.48,0.57,3223,2019-03-25 16:02:19:465
-0.49,-0.87,10.5,0.52,-0.59,0.62,0.01,-0.48,0.57,3228,2019-03-25 16:02:19:470
-0.49,-0.87,10.5,0.52,-0.59,0.62,0.01,-0.48,0.57,3233,2019-03-25 16:02:19:475
-0.06,-0.05,10.03,0.85,0.24,0.1,0.0,-0.1,0.52,3239,2019-03-25 16:02:19:481
-0.06,-0.05,10.03,0.85,0.24,0.1,0.0,-0.1,0.52,3244,2019-03-25 16:02:19:486
0.62,0.48,9.96,1.41,0.73,0.01,-0.01,-0.05,0.45,3248,2019-03-25 16:02:19:490
0.62,0.48,9.96,1.41,0.73,0.01,-0.01,-0.05,0.45,3253,2019-03-25 16:02:19:495
0.62,0.48,9.96,1.41,0.73,0.01,-0.01,-0.05,0.45,3258,2019-03-25 16:02:19:500
0.62,0.48,9.96,1.41,0.73,0.01,-0.01,-0.05,0.45,3263,2019-03-25 16:02:19:505
0.62,0.48,9.96,1.41,0.73,0.01,-0.01,-0.05,0.45,3268,2019-03-25 16:02:19:510
-0.18,0.29,9.97,1.41,0.73,0.01,-0.01,-0.05,0.45,3273,2019-03-25 16:02:19:515
-0.18,0.29,9.97,0.5,0.52,0.04,0.0,-0.18,0.26,3278,2019-03-25 16:02:19:520
-0.18,0.29,9.97,0.5,0.52,0.04,0.0,-0.18,0.26,3283,2019-03-25 16:02:19:525
-0.18,0.29,9.97,0.5,0.52,0.04,0.0,-0.18,0.26,3288,2019-03-25 16:02:19:530
-0.18,0.29,9.97,0.5,0.52,0.04,0.0,-0.18,0.26,3294,2019-03-25 16:02:19:536
-0.18,0.29,9.97,0.5,0.52,0.04,0.0,-0.18,0.26,3297,2019-03-25 16:02:19:539
-0.58,0.29,9.76,0.07,0.49,-0.15,0.0,-0.09,0.1,3302,2019-03-25 16:02:19:544
-0.58,0.29,9.76,0.07,0.49,-0.15,0.0,-0.09,0.1,3309,2019-03-25 16:02:19:551
-0.58,0.29,9.76,0.07,0.49,-0.15,0.0,-0.09,0.1,3313,2019-03-25 16:02:19:555
-0.68,-0.13,9.97,-0.02,-0.02,0.06,0.0,-0.1,0.07,3318,2019-03-25 16:02:19:560
-0.68,-0.13,9.97,-0.02,-0.02,0.06,0.0,-0.1,0.07,3323,2019-03-25 16:02:19:565
-0.68,-0.13,9.97,-0.02,-0.02,0.06,0.0,-0.1,0.07,3328,2019-03-25 16:02:19:570
-0.83,-0.08,10.09,-0.02,-0.02,0.06,0.01,-0.14,0.06,3333,2019-03-25 16:02:19:575
-0.83,-0.08,10.09,-0.2,0.01,0.2,0.01,-0.14,0.06,3339,2019-03-25 16:02:19:581
-0.83,-0.08,10.09,-0.2,0.01,0.2,0.01,-0.14,0.06,3344,2019-03-25 16:02:19:586
-0.83,-0.08,10.09,-0.2,0.01,0.2,0.01,-0.14,0.06,3348,2019-03-25 16:02:19:590
-0.83,-0.08,10.09,-0.2,0.01,0.2,0.01,-0.14,0.06,3353,2019-03-25 16:02:19:595
-0.68,-0.12,9.68,-0.08,-0.05,-0.13,0.0,0.02,0.09,3361,2019-03-25 16:02:19:603
-0.68,-0.12,9.68,-0.08,-0.05,-0.13,0.0,0.02,0.09,3363,2019-03-25 16:02:19:605
-0.68,-0.12,9.68,-0.08,-0.05,-0.13,0.0,0.02,0.09,3368,2019-03-25 16:02:19:610
-1.13,0.04,9.84,-0.08,-0.05,-0.13,0.0,-0.14,0.12,3373,2019-03-25 16:02:19:615
-1.13,0.04,9.84,-0.62,0.08,0.02,0.0,-0.14,0.12,3380,2019-03-25 16:02:19:622
-1.13,0.04,9.84,-0.62,0.08,0.02,0.0,-0.14,0.12,3386,2019-03-25 16:02:19:628
-1.13,0.04,9.84,-0.62,0.08,0.02,0.0,-0.14,0.12,3388,2019-03-25 16:02:19:630
-1.13,0.04,9.84,-0.62,0.08,0.02,0.0,-0.14,0.12,3394,2019-03-25 16:02:19:636
-1.13,0.04,9.84,-0.62,0.08,0.02,0.0,-0.14,0.12,3399,2019-03-25 16:02:19:641
-1.29,0.01,10.45,-0.78,0.0,0.42,0.0,-0.09,0.2,3403,2019-03-25 16:02:19:645
-1.29,0.01,10.45,-0.78,0.0,0.42,0.0,-0.09,0.2,3409,2019-03-25 16:02:19:651
-1.29,0.01,10.45,-0.78,0.0,0.42,0.0,-0.09,0.2,3413,2019-03-25 16:02:19:655
-1.29,0.01,10.45,-0.78,0.0,0.42,0.0,-0.09,0.2,3419,2019-03-25 16:02:19:661
-1.29,0.01,10.45,-0.78,0.0,0.42,0.0,-0.09,0.2,3423,2019-03-25 16:02:19:665
-0.07,-0.11,9.76,0.41,-0.17,-0.23,0.0,0.05,0.3,3431,2019-03-25 16:02:19:673
-0.07,-0.11,9.76,0.41,-0.17,-0.23,0.0,0.05,0.3,3436,2019-03-25 16:02:19:678
-0.07,-0.11,9.76,0.41,-0.17,-0.23,0.0,0.05,0.3,3438,2019-03-25 16:02:19:680
-0.07,-0.11,9.76,0.41,-0.17,-0.23,0.0,0.05,0.3,3443,2019-03-25 16:02:19:685
-0.07,0.33,10.14,0.82,0.19,0.17,0.0,0.16,0.24,3449,2019-03-25 16:02:19:691
0.34,0.33,10.14,0.82,0.19,0.17,0.0,0.16,0.24,3453,2019-03-25 16:02:19:695
0.34,0.33,10.14,0.82,0.19,0.17,0.0,0.16,0.24,3459,2019-03-25 16:02:19:701
0.34,0.33,10.14,0.82,0.19,0.17,0.0,0.16,0.24,3464,2019-03-25 16:02:19:706
0.34,0.33,10.14,0.82,-0.39,0.08,0.0,0.08,0.01,3468,2019-03-25 16:02:19:710
-0.05,-0.29,10.06,0.49,-0.39,0.08,0.0,0.08,0.01,3473,2019-03-25 16:02:19:715
-0.2,-0.06,10.18,0.45,-0.07,0.22,0.0,0.09,0.06,3482,2019-03-25 16:02:19:724
-0.2,-0.06,10.18,0.45,-0.07,0.22,0.0,0.09,0.06,3483,2019-03-25 16:02:19:725
-0.2,-0.06,10.18,0.45,-0.07,0.22,0.0,0.09,0.06,3488,2019-03-25 16:02:19:730
-0.2,-0.06,10.18,0.45,-0.07,0.22,0.0,0.09,0.06,3493,2019-03-25 16:02:19:735
-1.02,-0.12,10.11,-0.34,-0.1,0.13,0.01,0.0,0.1,3498,2019-03-25 16:02:19:740
-1.02,-0.12,10.11,-0.34,-0.1,0.13,0.01,0.0,0.1,3503,2019-03-25 16:02:19:745
-1.02,-0.12,10.11,-0.34,-0.1,0.13,0.01,0.0,0.1,3508,2019-03-25 16:02:19:750
-1.02,-0.12,10.11,-0.34,-0.1,0.13,0.01,0.0,0.1,3512,2019-03-25 16:02:19:754
-1.02,-0.12,10.11,-0.34,-0.1,0.13,0.01,0.0,0.1,3519,2019-03-25 16:02:19:761
-0.23,0.0,9.73,0.44,0.05,-0.23,0.04,0.03,0.12,3524,2019-03-25 16:02:19:766
-0.23,0.0,9.73,0.44,0.05,-0.23,0.04,0.03,0.12,3528,2019-03-25 16:02:19:770
-0.23,0.0,9.73,0.44,0.05,-0.23,0.03,0.01,0.1,3533,2019-03-25 16:02:19:775
-0.23,0.0,9.73,-0.08,-0.11,-0.32,0.03,0.01,0.1,3538,2019-03-25 16:02:19:780
-0.23,0.0,9.73,-0.08,-0.11,-0.32,0.03,0.01,0.1,3543,2019-03-25 16:02:19:785
-0.23,0.0,9.73,-0.08,-0.11,-0.32,0.03,0.01,0.1,3548,2019-03-25 16:02:19:790
-0.23,-1.19,9.64,-0.08,-0.11,-0.32,0.03,0.01,0.1,3553,2019-03-25 16:02:19:795
-1.74,-1.19,9.64,-1.07,-1.1,-0.29,0.01,0.01,0.01,3558,2019-03-25 16:02:19:800
-1.74,-1.19,9.64,-1.07,-1.1,-0.29,0.01,0.01,0.01,3563,2019-03-25 16:02:19:805
-1.74,-1.19,9.64,-1.07,-1.1,-0.29,0.01,0.01,0.01,3568,2019-03-25 16:02:19:810
-1.74,-1.19,9.64,-1.07,-1.1,-0.29,0.01,0.01,0.01,3573,2019-03-25 16:02:19:815
-0.72,-0.35,9.93,-0.1,-0.23,0.0,0.0,-0.05,0.14,3578,2019-03-25 16:02:19:820
-0.72,-0.35,9.93,-0.1,-0.23,0.0,0.0,-0.05,0.14,3585,2019-03-25 16:02:19:827
-0.72,-0.35,9.93,-0.1,-0.23,0.0,0.0,-0.05,0.14,3589,2019-03-25 16:02:19:831
-0.72,-0.35,9.93,-0.1,-0.23,0.0,0.0,-0.05,0.14,3593,2019-03-25 16:02:19:835
-0.72,-0.35,9.93,-0.1,-0.23,0.0,0.0,-0.05,0.14,3601,2019-03-25 16:02:19:843
-0.42,2.55,10.24,0.1,2.57,0.31,0.0,-0.04,0.16,3603,2019-03-25 16:02:19:845
-0.42,2.55,10.24,0.1,2.57,0.31,0.0,-0.04,0.16,3608,2019-03-25 16:02:19:850
-0.42,2.55,10.24,0.1,2.57,0.31,0.0,-0.04,0.16,3612,2019-03-25 16:02:19:854
-0.15,-0.62,9.04,0.39,-0.56,-0.83,0.0,0.05,0.01,3618,2019-03-25 16:02:19:860
-0.15,-0.62,9.04,0.39,-0.56,-0.83,0.0,0.05,0.01,3623,2019-03-25 16:02:19:865
-0.15,-0.62,9.04,0.39,-0.56,-0.83,0.0,0.05,0.01,3627,2019-03-25 16:02:19:869
-1.53,-0.23,10.11,1.29,0.29,0.12,-0.02,-0.03,0.01,3633,2019-03-25 16:02:19:875
-1.53,-0.23,10.11,1.29,0.29,0.12,-0.02,-0.03,0.01,3638,2019-03-25 16:02:19:880
-1.53,-0.23,10.11,1.29,0.29,0.12,-0.02,-0.03,0.01,3643,2019-03-25 16:02:19:885
-1.53,-0.23,10.11,1.29,0.29,0.12,-0.02,-0.03,0.01,3648,2019-03-25 16:02:19:890
-1.53,-0.23,10.11,1.29,0.29,0.12,-0.02,-0.03,0.01,3653,2019-03-25 16:02:19:895
-1.53,-0.23,10.11,1.29,0.29,0.12,-0.02,-0.03,0.01,3658,2019-03-25 16:02:19:900
-0.47,-0.4,9.88,0.21,-0.28,-0.01,-0.01,0.04,-0.03,3663,2019-03-25 16:02:19:905
-0.47,-0.4,9.88,0.21,-0.28,-0.01,-0.01,0.04,-0.03,3668,2019-03-25 16:02:19:910
-0.47,-0.4,9.88,0.21,-0.28,-0.01,-0.01,0.04,-0.03,3673,2019-03-25 16:02:19:915
-0.47,-0.4,9.88,0.21,-0.28,-0.01,-0.01,0.04,-0.03,3679,2019-03-25 16:02:19:921
-0.85,-0.8,9.33,-0.15,-0.65,-0.54,-0.02,0.04,0.01,3683,2019-03-25 16:02:19:925
-0.85,-0.8,9.33,-0.15,-0.65,-0.54,-0.02,0.04,0.01,3688,2019-03-25 16:02:19:930
-0.85,-0.8,9.33,-0.15,-0.65,-0.54,-0.02,0.04,0.01,3692,2019-03-25 16:02:19:934
-11.44,8.43,8.64,3.57,20.24,0.69,0.03,-0.24,0.21,3698,2019-03-25 16:02:19:940
-11.44,8.43,8.64,3.57,20.24,0.69,0.03,-0.24,0.21,3703,2019-03-25 16:02:19:945
-11.44,8.43,8.64,3.57,20.24,0.69,0.03,-0.24,0.21,3708,2019-03-25 16:02:19:950
-11.44,8.43,8.64,3.57,20.24,0.69,0.03,-0.24,0.21,3713,2019-03-25 16:02:19:955
2.78,2.89,6.73,3.77,1.49,-2.97,0.22,0.15,-0.27,3718,2019-03-25 16:02:19:960
2.78,2.89,6.73,3.77,1.49,-2.97,0.22,0.15,-0.27,3722,2019-03-25 16:02:19:964
2.78,2.89,6.73,3.77,1.49,-2.97,0.22,0.15,-0.27,3729,2019-03-25 16:02:19:971
2.78,2.89,6.73,3.77,1.49,-2.97,0.22,0.15,-0.27,3733,2019-03-25 16:02:19:975
-4.32,-3.66,9.65,-3.19,-4.68,-0.05,-0.03,-0.12,-1.09,3738,2019-03-25 16:02:19:980
-4.32,-3.66,9.65,-3.19,-4.68,-0.05,-0.03,-0.12,-1.09,3743,2019-03-25 16:02:19:985
-4.32,-3.66,9.65,-3.19,-4.68,-0.05,-0.03,-0.12,-1.09,3748,2019-03-25 16:02:19:990
-4.32,-3.66,9.65,-3.19,-4.68,-0.05,-0.03,-0.12,-1.09,3753,2019-03-25 16:02:19:995
-4.32,-3.66,9.65,-3.19,-4.68,-0.05,-0.03,-0.12,-1.09,3758,2019-03-25 16:02:20:000
-4.32,-3.66,9.65,-3.19,-4.68,-0.05,-0.03,-0.12,-1.09,3763,2019-03-25 16:02:20:005
-1.39,-2.04,10.49,-0.21,-2.84,0.72,0.0,-0.13,-0.52,3768,2019-03-25 16:02:20:010
-1.39,-2.04,10.49,-0.21,-2.84,0.72,0.0,-0.13,-0.52,3773,2019-03-25 16:02:20:015
-1.39,-2.04,10.49,-0.21,-2.84,0.72,0.0,-0.13,-0.52,3779,2019-03-25 16:02:20:021
-1.39,-2.04,10.49,-0.21,-2.84,0.72,0.0,-0.13,-0.52,3783,2019-03-25 16:02:20:025
-0.73,-1.5,9.74,0.46,-2.14,0.01,-0.01,0.0,-0.26,3788,2019-03-25 16:02:20:030
-0.73,-1.5,9.74,0.46,-2.14,0.01,-0.01,0.0,-0.26,3793,2019-03-25 16:02:20:035
-0.73,-1.5,9.74,0.46,-2.14,0.01,-0.01,0.0,-0.26,3798,2019-03-25 16:02:20:040
-1.06,-0.81,9.74,0.17,-1.23,0.02,-0.07,-0.03,0.01,3804,2019-03-25 16:02:20:046
-1.06,-0.81,9.74,0.17,-1.23,0.02,-0.07,-0.03,0.01,3808,2019-03-25 16:02:20:050
-1.06,-0.81,9.74,0.17,-1.23,0.02,-0.07,-0.03,0.01,3813,2019-03-25 16:02:20:055
0.07,-1.03,9.63,1.26,-1.41,-0.2,-0.04,0.13,0.21,3818,2019-03-25 16:02:20:060
0.07,-1.03,9.63,1.26,-1.41,-0.2,-0.04,0.13,0.21,3823,2019-03-25 16:02:20:065
0.07,-1.03,9.63,1.26,-1.41,-0.2,-0.04,0.13,0.21,3828,2019-03-25 16:02:20:070
0.07,-1.03,9.63,1.26,-1.41,-0.2,-0.04,0.13,0.21,3833,2019-03-25 16:02:20:075
0.47,0.67,9.35,1.66,0.35,-0.45,-0.02,0.42,0.21,3838,2019-03-25 16:02:20:080
0.47,0.67,9.35,1.66,0.35,-0.45,-0.02,0.42,0.21,3843,2019-03-25 16:02:20:085
0.47,0.67,9.35,1.66,0.35,-0.45,-0.02,0.42,0.21,3848,2019-03-25 16:02:20:090
0.47,0.67,9.35,1.66,0.35,-0.45,-0.02,0.42,0.21,3853,2019-03-25 16:02:20:095
-1.92,-1.4,10.93,-0.7,-1.67,1.12,-0.01,0.17,0.1,3858,2019-03-25 16:02:20:100
-1.92,-1.4,10.93,-0.7,-1.67,1.12,-0.01,0.17,0.1,3863,2019-03-25 16:02:20:105
-0.97,-0.48,10.05,0.72,-1.22,0.27,-0.02,0.23,0.31,3868,2019-03-25 16:02:20:110
-0.97,-0.48,10.05,0.72,-1.22,0.27,-0.02,0.23,0.31,3873,2019-03-25 16:02:20:115
-0.97,-0.48,10.05,0.72,-1.22,0.27,-0.02,0.23,0.31,3878,2019-03-25 16:02:20:120
-0.97,-0.48,10.05,0.72,-1.22,0.27,-0.02,0.23,0.31,3883,2019-03-25 16:02:20:125
-0.73,0.13,9.85,0.61,0.89,0.01,-0.06,0.59,0.54,3888,2019-03-25 16:02:20:130
-0.73,0.13,9.85,0.61,0.89,0.01,-0.06,0.59,0.54,3893,2019-03-25 16:02:20:135
-0.73,0.13,9.85,0.61,0.89,0.01,-0.06,0.59,0.54,3898,2019-03-25 16:02:20:140
-0.73,0.13,9.85,0.61,0.89,0.01,-0.06,0.59,0.54,3903,2019-03-25 16:02:20:145
-1.41,-0.35,9.63,-0.29,0.98,-0.39,-0.08,0.55,0.52,3909,2019-03-25 16:02:20:151
-1.41,-0.35,9.63,-0.29,0.98,-0.39,-0.08,0.55,0.52,3913,2019-03-25 16:02:20:155
-1.41,-0.35,9.63,-0.29,0.98,-0.39,-0.08,0.55,0.52,3918,2019-03-25 16:02:20:160
-1.41,-0.35,9.63,-0.29,0.98,-0.39,-0.08,0.55,0.52,3923,2019-03-25 16:02:20:165
-1.41,-0.35,9.63,-0.29,0.98,-0.39,-0.08,0.55,0.52,3928,2019-03-25 16:02:20:170
-1.41,-0.35,9.63,-0.29,0.98,-0.39,-0.08,0.55,0.52,3933,2019-03-25 16:02:20:175
-0.01,0.02,8.91,1.03,1.02,-1.05,-0.06,0.37,0.36,3938,2019-03-25 16:02:20:180
-0.01,0.02,8.91,1.03,1.02,-1.05,-0.06,0.37,0.36,3943,2019-03-25 16:02:20:185
-0.01,0.02,8.91,1.03,1.02,-1.05,-0.06,0.37,0.36,3948,2019-03-25 16:02:20:190
-0.01,0.95,5.42,1.03,1.02,-1.05,0.03,-0.17,-0.04,3954,2019-03-25 16:02:20:196
-1.4,0.95,5.42,1.03,1.02,-1.05,0.03,-0.17,-0.04,3959,2019-03-25 16:02:20:201
-1.4,0.95,5.42,1.03,1.02,-1.05,0.03,-0.17,-0.04,3963,2019-03-25 16:02:20:205
0.75,-0.13,12.69,-0.5,1.52,-4.2,0.13,-1.05,-0.08,3968,2019-03-25 16:02:20:210
0.75,-0.13,12.69,-0.5,1.52,-4.2,0.13,-1.05,-0.08,3973,2019-03-25 16:02:20:215
0.75,-0.13,12.69,-0.5,1.52,-4.2,0.13,-1.05,-0.08,3978,2019-03-25 16:02:20:220
0.75,-0.13,12.69,-0.5,1.52,-4.2,0.13,-1.05,-0.08,3982,2019-03-25 16:02:20:224
0.64,-0.08,11.78,0.11,0.14,2.17,-0.07,-4.02,0.02,3989,2019-03-25 16:02:20:231
0.64,-0.08,11.78,0.11,0.14,2.17,-0.07,-4.02,0.02,3993,2019-03-25 16:02:20:235
0.64,-0.08,11.78,0.11,0.14,2.17,-0.07,-4.02,0.02,3999,2019-03-25 16:02:20:241
0.64,-0.08,11.78,0.11,0.14,2.17,-0.07,-4.02,0.02,4003,2019-03-25 16:02:20:245
1.0,0.21,13.77,0.41,0.36,3.94,0.09,1.02,-0.09,4008,2019-03-25 16:02:20:250
1.0,0.21,13.77,0.41,0.36,3.94,0.09,1.02,-0.09,4013,2019-03-25 16:02:20:255
1.0,0.21,13.77,-0.86,0.28,-9.3,0.09,1.02,-0.09,4018,2019-03-25 16:02:20:260
1.0,0.21,13.77,-0.86,0.28,-9.3,0.09,1.02,-0.09,4023,2019-03-25 16:02:20:265
1.0,0.21,13.77,-0.86,0.28,-9.3,0.09,1.02,-0.09,4028,2019-03-25 16:02:20:270
1.0,0.21,13.77,-0.86,0.28,-9.3,0.09,1.02,-0.09,4033,2019-03-25 16:02:20:275
-1.2,-0.28,4.09,-0.82,-0.19,-4.94,-0.09,4.6,-0.07,4039,2019-03-25 16:02:20:281
-1.2,-0.28,4.09,-0.82,-0.19,-4.94,-0.09,4.6,-0.07,4043,2019-03-25 16:02:20:285
-1.2,-0.28,4.09,-0.82,-0.19,-4.94,-0.09,4.6,-0.07,4048,2019-03-25 16:02:20:290
-0.95,-0.2,4.47,-0.24,-0.14,-3.96,-0.05,0.37,0.08,4053,2019-03-25 16:02:20:295
-0.95,-0.2,4.47,-0.24,-0.14,-3.96,-0.05,0.37,0.08,4058,2019-03-25 16:02:20:300
-0.95,-0.2,4.47,-0.24,-0.14,-3.96,-0.05,0.37,0.08,4063,2019-03-25 16:02:20:305
0.52,-0.04,13.02,0.67,-0.15,3.57,0.1,-3.76,0.16,4068,2019-03-25 16:02:20:310
0.52,-0.04,13.02,0.67,-0.15,3.57,0.1,-3.76,0.16,4073,2019-03-25 16:02:20:315
0.52,-0.04,13.02,0.67,-0.15,3.57,0.1,-3.76,0.16,4078,2019-03-25 16:02:20:320
0.52,-0.04,13.02,0.67,-0.15,3.57,0.1,-3.76,0.16,4083,2019-03-25 16:02:20:325
0.58,-0.02,12.19,0.17,-0.13,2.53,-0.1,-1.5,-0.01,4088,2019-03-25 16:02:20:330
0.58,-0.02,12.19,0.17,-0.13,2.53,-0.1,-1.5,-0.01,4093,2019-03-25 16:02:20:335
0.58,-0.02,12.19,0.17,-0.13,2.53,-0.1,-1.5,-0.01,4098,2019-03-25 16:02:20:340
0.58,-0.02,12.19,0.17,-0.13,2.53,-0.1,-1.5,-0.01,4103,2019-03-25 16:02:20:345
0.58,-0.02,12.19,0.17,-0.13,2.53,-0.1,-1.5,-0.01,4108,2019-03-25 16:02:20:350
0.58,-0.02,12.19,0.17,-0.13,2.53,-0.1,-1.5,-0.01,4113,2019-03-25 16:02:20:355
-0.82,0.08,2.18,-0.9,-0.04,-7.2,0.08,2.76,-0.1,4118,2019-03-25 16:02:20:360
-0.82,0.08,2.18,-0.9,-0.04,-7.2,0.08,2.76,-0.1,4123,2019-03-25 16:02:20:365
-0.82,0.08,2.18,-0.9,-0.04,-7.2,0.08,2.76,-0.1,4128,2019-03-25 16:02:20:370
-1.21,-0.34,4.54,-0.9,-0.04,-7.2,0.08,2.76,-0.1,4134,2019-03-25 16:02:20:376
-1.21,-0.34,4.54,-0.56,-0.44,-4.32,-0.06,2.24,0.02,4138,2019-03-25 16:02:20:380
-1.21,-0.34,4.54,-0.56,-0.44,-4.32,-0.06,2.24,0.02,4143,2019-03-25 16:02:20:385
-1.21,-0.34,4.54,-0.56,-0.44,-4.32,-0.06,2.24,0.02,4148,2019-03-25 16:02:20:390
0.61,0.02,11.73,1.0,0.07,2.63,0.08,-2.14,0.11,4153,2019-03-25 16:02:20:395
0.61,0.02,11.73,1.0,0.07,2.63,0.08,-2.14,0.11,4158,2019-03-25 16:02:20:400
0.61,0.02,11.73,1.0,0.07,2.63,0.08,-2.14,0.11,4163,2019-03-25 16:02:20:405
0.54,-0.11,11.86,0.31,-0.04,2.18,0.01,-2.43,0.01,4168,2019-03-25 16:02:20:410
0.54,-0.11,11.86,0.31,-0.04,2.18,0.01,-2.43,0.01,4173,2019-03-25 16:02:20:415
0.54,-0.11,11.86,0.31,-0.04,2.18,0.01,-2.43,0.01,4178,2019-03-25 16:02:20:420
0.54,-0.11,11.86,0.31,-0.04,2.18,0.01,-2.43,0.01,4183,2019-03-25 16:02:20:425
-0.58,-0.19,14.72,-0.58,-0.12,4.93,0.05,1.75,-0.04,4188,2019-03-25 16:02:20:430
-0.58,-0.19,14.72,-0.58,-0.12,4.93,0.05,1.75,-0.04,4193,2019-03-25 16:02:20:435
-0.58,-0.19,14.72,-0.58,-0.12,4.93,0.05,1.75,-0.04,4198,2019-03-25 16:02:20:440
-0.58,-0.19,14.72,-0.58,-0.12,4.93,0.05,1.75,-0.04,4203,2019-03-25 16:02:20:445
-1.16,-0.27,4.64,-0.47,-0.16,-4.26,-0.03,2.52,0.0,4208,2019-03-25 16:02:20:450
-1.16,-0.27,4.64,-0.47,-0.16,-4.26,-0.03,2.52,0.0,4213,2019-03-25 16:02:20:455
-1.16,-0.27,4.64,-0.47,-0.16,-4.26,-0.03,2.52,0.0,4223,2019-03-25 16:02:20:465
-1.16,-0.27,4.64,-0.47,-0.16,-4.26,-0.03,2.52,0.0,4224,2019-03-25 16:02:20:466
-1.16,-0.27,4.64,-0.47,-0.16,-4.26,-0.03,2.52,0.0,4228,2019-03-25 16:02:20:470
0.44,0.0,11.94,0.87,0.09,2.31,0.04,-1.76,0.07,4234,2019-03-25 16:02:20:476
0.44,0.0,11.94,0.87,0.09,2.31,0.04,-1.76,0.07,4238,2019-03-25 16:02:20:480
0.44,0.0,11.94,0.87,0.09,2.31,0.04,-1.76,0.07,4243,2019-03-25 16:02:20:485
0.44,0.0,11.94,0.87,0.09,2.31,0.04,-1.76,0.07,4248,2019-03-25 16:02:20:490
0.46,-0.09,11.98,0.31,-0.02,1.56,0.05,-2.05,0.01,4253,2019-03-25 16:02:20:495
0.46,-0.09,11.98,0.31,-0.02,1.56,0.05,-2.05,0.01,4258,2019-03-25 16:02:20:500
0.46,-0.09,11.98,0.31,-0.02,1.56,0.05,-2.05,0.01,4263,2019-03-25 16:02:20:505
0.46,-0.09,11.98,0.31,-0.02,1.56,0.05,-2.05,0.01,4269,2019-03-25 16:02:20:511
-0.87,-0.35,6.83,-0.8,-0.24,-2.47,0.0,1.71,-0.03,4273,2019-03-25 16:02:20:515
-0.87,-0.35,6.83,-0.8,-0.24,-2.47,0.0,1.71,-0.03,4280,2019-03-25 16:02:20:522
-0.87,-0.35,6.83,-0.8,-0.24,-2.47,0.0,1.71,-0.03,4284,2019-03-25 16:02:20:526
-0.96,-0.15,5.44,-0.33,-0.02,-3.16,0.0,1.83,0.01,4288,2019-03-25 16:02:20:530
-0.96,-0.15,5.44,-0.33,-0.02,-3.16,0.0,1.83,0.01,4296,2019-03-25 16:02:20:538
-0.96,-0.15,5.44,-0.33,-0.02,-3.16,0.0,1.83,0.01,4298,2019-03-25 16:02:20:540
-0.96,-0.15,5.44,-0.33,-0.02,-3.16,0.0,1.83,0.01,4303,2019-03-25 16:02:20:545
-0.96,-0.15,5.44,-0.33,-0.02,-3.16,0.0,1.83,0.01,4310,2019-03-25 16:02:20:552
0.27,-0.14,11.88,0.6,0.0,2.53,0.0,-2.05,0.03,4313,2019-03-25 16:02:20:555
0.27,-0.14,11.88,0.6,0.0,2.53,0.0,-2.05,0.03,4318,2019-03-25 16:02:20:560
0.27,-0.14,11.88,0.6,0.0,2.53,0.0,-2.05,0.03,4323,2019-03-25 16:02:20:565
0.27,-0.14,11.88,0.6,0.0,2.53,0.0,-2.05,0.03,4328,2019-03-25 16:02:20:570
0.27,-0.14,11.23,0.6,0.0,2.53,0.0,-2.05,0.03,4333,2019-03-25 16:02:20:575
0.13,-0.07,11.23,0.03,0.04,1.18,0.02,-1.04,0.01,4339,2019-03-25 16:02:20:581
0.13,-0.07,11.23,0.03,0.04,1.18,0.02,-1.04,0.01,4345,2019-03-25 16:02:20:587
-0.83,-0.24,5.38,-0.59,-0.09,-4.77,-0.05,2.04,0.0,4350,2019-03-25 16:02:20:592
-0.83,-0.24,5.38,-0.59,-0.09,-4.77,-0.05,2.04,0.0,4355,2019-03-25 16:02:20:597
-0.83,-0.24,5.38,-0.59,-0.09,-4.77,-0.05,2.04,0.0,4358,2019-03-25 16:02:20:600
-0.83,-0.24,5.38,-0.59,-0.09,-4.77,-0.05,2.04,0.0,4363,2019-03-25 16:02:20:605
-0.83,-0.24,5.38,-0.59,-0.09,-4.77,-0.05,2.04,0.0,4368,2019-03-25 16:02:20:610
-0.68,0.14,7.58,-0.06,0.27,-2.01,0.01,0.55,0.02,4379,2019-03-25 16:02:20:621
-0.68,0.14,7.58,-0.06,0.27,-2.01,0.01,0.55,0.02,4380,2019-03-25 16:02:20:622
-0.68,0.14,7.58,-0.06,0.27,-2.01,0.01,0.55,0.02,4383,2019-03-25 16:02:20:625
0.23,-0.09,11.6,-0.06,0.27,-2.01,0.05,-2.27,0.02,4388,2019-03-25 16:02:20:630
0.23,-0.09,11.6,0.21,0.04,1.7,0.05,-2.27,0.02,4393,2019-03-25 16:02:20:635
0.23,-0.09,11.6,0.21,0.04,1.7,0.05,-2.27,0.02,4398,2019-03-25 16:02:20:640
0.23,-0.09,11.6,0.21,0.04,1.7,0.05,-2.27,0.02,4403,2019-03-25 16:02:20:645
0.23,-0.09,11.6,0.21,0.04,1.7,0.05,-2.27,0.02,4408,2019-03-25 16:02:20:650
0.23,-0.09,11.6,0.21,0.04,1.7,0.05,-2.27,0.02,4413,2019-03-25 16:02:20:655
-0.11,-0.06,12.93,-0.09,0.03,2.75,0.0,0.29,0.0,4418,2019-03-25 16:02:20:660
-0.11,-0.06,12.93,-0.09,0.03,2.75,0.0,0.29,0.0,4423,2019-03-25 16:02:20:665
-0.11,-0.06,12.93,-0.09,0.03,2.75,0.0,0.29,0.0,4428,2019-03-25 16:02:20:670
-0.11,-0.06,12.93,-0.09,0.03,2.75,0.0,0.29,0.0,4433,2019-03-25 16:02:20:675
-0.94,-0.11,5.88,-0.09,0.03,2.75,0.0,0.29,0.0,4438,2019-03-25 16:02:20:680
-0.94,-0.11,5.88,-0.47,0.01,-3.93,-0.03,2.02,0.0,4443,2019-03-25 16:02:20:685
0.25,-0.09,11.81,-0.47,0.01,-3.93,-0.03,2.02,0.0,4448,2019-03-25 16:02:20:690
0.25,-0.09,11.81,-0.47,0.01,-3.93,-0.03,2.02,0.0,4453,2019-03-25 16:02:20:695
0.25,-0.09,11.81,-0.47,0.01,-3.93,-0.03,2.02,0.0,4458,2019-03-25 16:02:20:700
0.25,-0.09,11.81,-0.47,0.01,-3.93,-0.03,2.02,0.0,4463,2019-03-25 16:02:20:705
0.25,-0.09,11.81,-0.47,0.01,-3.93,-0.03,2.02,0.0,4468,2019-03-25 16:02:20:710
0.25,-0.09,11.81,-0.47,0.01,-3.93,-0.03,2.02,0.0,4473,2019-03-25 16:02:20:715
0.07,-0.1,11.43,0.16,0.01,1.39,0.04,-0.88,0.01,4478,2019-03-25 16:02:20:720
0.07,-0.1,11.43,0.16,0.01,1.39,0.04,-0.88,0.01,4483,2019-03-25 16:02:20:725
0.07,-0.1,11.43,-0.28,0.02,-3.4,-0.06,1.7,0.0,4488,2019-03-25 16:02:20:730
0.07,-0.1,11.43,-0.28,0.02,-3.4,-0.06,1.7,0.0,4493,2019-03-25 16:02:20:735
0.07,-0.1,11.43,-0.28,0.02,-3.4,-0.06,1.7,0.0,4498,2019-03-25 16:02:20:740
0.07,-0.1,11.43,-0.28,0.02,-3.4,-0.06,1.7,0.0,4503,2019-03-25 16:02:20:745
-0.17,-0.12,12.3,0.26,-0.02,2.44,0.0,-0.35,0.01,4508,2019-03-25 16:02:20:750
-0.17,-0.12,12.3,0.26,-0.02,2.44,0.0,-0.35,0.01,4513,2019-03-25 16:02:20:755
-0.17,-0.12,12.3,0.26,-0.02,2.44,0.0,-0.35,0.01,4518,2019-03-25 16:02:20:760
-0.17,-0.12,12.3,0.26,-0.02,2.44,0.0,-0.35,0.01,4522,2019-03-25 16:02:20:764
0.04,-0.08,11.5,0.2,0.0,1.62,0.06,-1.17,0.01,4529,2019-03-25 16:02:20:771
0.04,-0.08,11.5,0.2,0.0,1.62,0.06,-1.17,0.01,4533,2019-03-25 16:02:20:775
0.04,-0.08,11.5,0.2,0.0,1.62,0.06,-1.17,0.01,4538,2019-03-25 16:02:20:780
0.04,-0.08,11.5,0.2,0.0,1.62,0.06,-1.17,0.01,4543,2019-03-25 16:02:20:785
0.04,-0.08,11.5,0.2,0.0,1.62,0.06,-1.17,0.01,4548,2019-03-25 16:02:20:790
-0.84,-0.15,6.03,-0.52,-0.05,-3.73,-0.05,1.36,0.0,4553,2019-03-25 16:02:20:795
-0.84,-0.15,6.03,-0.52,-0.05,-3.73,-0.05,1.36,0.0,4558,2019-03-25 16:02:20:800
-0.84,-0.15,6.03,-0.52,-0.05,-3.73,-0.05,1.36,0.0,4563,2019-03-25 16:02:20:805
-0.15,-0.1,11.27,0.22,0.0,1.23,0.0,-0.27,0.01,4568,2019-03-25 16:02:20:810
-0.15,-0.1,11.27,0.22,0.0,1.23,0.0,-0.27,0.01,4573,2019-03-25 16:02:20:815
-0.15,-0.1,11.27,0.22,0.0,1.23,0.0,-0.27,0.01,4578,2019-03-25 16:02:20:820
-0.05,-0.11,11.2,0.13,-0.01,1.18,0.05,-0.86,0.01,4583,2019-03-25 16:02:20:825
-0.05,-0.11,11.2,0.13,-0.01,1.18,0.05,-0.86,0.01,4590,2019-03-25 16:02:20:832
-0.05,-0.11,11.2,0.13,-0.01,1.18,0.05,-0.86,0.01,4593,2019-03-25 16:02:20:835
-0.05,-0.11,11.2,0.13,-0.01,1.18,0.05,-0.86,0.01,4598,2019-03-25 16:02:20:840
-0.05,-0.11,11.2,0.13,-0.01,1.18,0.05,-0.86,0.01,4603,2019-03-25 16:02:20:845
-0.72,-0.09,6.27,-0.32,0.01,-3.29,-0.05,1.26,0.0,4608,2019-03-25 16:02:20:850
-0.72,-0.09,6.27,-0.32,0.01,-3.29,-0.05,1.26,0.0,4613,2019-03-25 16:02:20:855
-0.72,-0.09,6.27,-0.32,0.01,-3.29,-0.05,1.26,0.0,4619,2019-03-25 16:02:20:861
0.0,-0.08,11.18,-0.32,0.01,-3.29,-0.05,1.26,0.0,4623,2019-03-25 16:02:20:865
0.0,-0.08,11.18,0.33,0.02,1.11,0.0,-0.7,0.01,4628,2019-03-25 16:02:20:870
0.0,-0.08,11.18,0.33,0.02,1.11,0.0,-0.7,0.01,4633,2019-03-25 16:02:20:875
0.0,-0.08,11.18,0.33,0.02,1.11,0.0,-0.7,0.01,4638,2019-03-25 16:02:20:880
0.0,-0.08,11.18,0.33,0.02,1.11,0.0,-0.7,0.01,4643,2019-03-25 16:02:20:885
0.0,-0.08,11.18,0.33,0.02,1.11,0.0,-0.7,0.01,4648,2019-03-25 16:02:20:890
-0.22,-0.11,11.26,0.07,-0.01,1.25,-0.03,0.81,0.0,4653,2019-03-25 16:02:20:895
-0.22,-0.11,11.26,0.07,-0.01,1.25,-0.03,0.81,0.0,4658,2019-03-25 16:02:20:900
-0.22,-0.11,11.26,0.07,-0.01,1.25,-0.03,0.81,0.0,4663,2019-03-25 16:02:20:905
-0.22,-0.11,11.26,0.07,-0.01,1.25,-0.03,0.81,0.0,4668,2019-03-25 16:02:20:910
-0.22,-0.11,11.26,0.07,-0.01,1.25,-0.03,0.81,0.0,4673,2019-03-25 16:02:20:915
-0.55,-0.16,9.4,0.07,-0.01,1.25,0.01,-0.15,0.0,4678,2019-03-25 16:02:20:920
-0.55,-0.16,9.4,-0.16,-0.06,-0.25,0.01,-0.15,0.0,4683,2019-03-25 16:02:20:925
-0.55,-0.16,9.4,-0.16,-0.06,-0.25,0.01,-0.15,0.0,4688,2019-03-25 16:02:20:930
-0.55,-0.16,9.4,-0.16,-0.06,-0.25,0.01,-0.15,0.0,4694,2019-03-25 16:02:20:936
-0.55,-0.16,9.4,-0.16,-0.06,-0.25,0.01,-0.15,0.0,4698,2019-03-25 16:02:20:940
-0.05,-0.08,11.1,0.15,0.02,0.93,0.02,-0.4,0.01,4703,2019-03-25 16:02:20:945
-0.05,-0.08,11.1,0.15,0.02,0.93,0.02,-0.4,0.01,4708,2019-03-25 16:02:20:950
-0.05,-0.08,11.1,0.15,0.02,0.93,0.02,-0.4,0.01,4713,2019-03-25 16:02:20:955
-0.05,-0.08,11.1,0.15,0.02,0.93,0.02,-0.4,0.01,4718,2019-03-25 16:02:20:960
-0.05,-0.08,11.1,0.15,0.02,0.93,0.02,-0.4,0.01,4723,2019-03-25 16:02:20:965
-0.15,-0.06,11.01,0.16,0.03,1.25,0.02,-0.74,0.01,4728,2019-03-25 16:02:20:970
-0.15,-0.06,11.01,0.16,0.03,1.25,0.02,-0.74,0.01,4733,2019-03-25 16:02:20:975
-0.15,-0.06,11.01,0.16,0.03,1.25,0.02,-0.74,0.01,4739,2019-03-25 16:02:20:981
-0.15,-0.06,11.01,0.16,0.03,1.25,0.02,-0.74,0.01,4743,2019-03-25 16:02:20:985
-0.15,-0.06,11.01,0.16,0.03,1.25,0.02,-0.74,0.01,4748,2019-03-25 16:02:20:990
-0.15,-0.06,11.01,0.16,0.03,1.25,0.02,-0.74,0.01,4753,2019-03-25 16:02:20:995
-0.23,-0.08,10.62,0.03,0.01,0.45,-0.01,0.4,0.0,4758,2019-03-25 16:02:21:000
-0.23,-0.08,10.62,0.03,0.01,0.45,-0.01,0.4,0.0,4762,2019-03-25 16:02:21:004
-0.23,-0.08,10.62,0.03,0.01,0.45,0.0,0.01,0.0,4769,2019-03-25 16:02:21:011
-0.23,-0.08,10.62,0.03,0.01,0.45,0.0,0.01,0.0,4773,2019-03-25 16:02:21:015
-0.23,-0.08,10.62,0.03,0.01,0.45,0.0,0.01,0.0,4778,2019-03-25 16:02:21:020
-0.23,-0.08,10.62,0.03,0.01,0.45,0.0,0.01,0.0,4783,2019-03-25 16:02:21:025
-0.23,-0.08,10.62,0.03,0.01,0.45,0.0,0.01,0.0,4788,2019-03-25 16:02:21:030
-0.23,-0.08,10.62,0.03,0.01,0.45,0.0,0.01,0.0,4793,2019-03-25 16:02:21:035
-0.15,-0.06,10.74,0.12,0.03,0.76,0.01,-0.27,0.01,4798,2019-03-25 16:02:21:040
-0.15,-0.06,10.74,0.12,0.03,0.76,0.01,-0.27,0.01,4803,2019-03-25 16:02:21:045
-0.15,-0.06,10.74,0.12,0.03,0.76,0.01,-0.27,0.01,4808,2019-03-25 16:02:21:050
-0.15,-0.06,10.74,0.12,0.03,0.76,0.01,-0.27,0.01,4813,2019-03-25 16:02:21:055
-0.15,-0.06,10.74,0.12,0.03,0.76,0.01,-0.27,0.01,4818,2019-03-25 16:02:21:060
-0.15,-0.06,10.74,0.12,0.03,0.76,0.01,-0.27,0.01,4823,2019-03-25 16:02:21:065
-0.23,-0.11,10.57,0.05,0.0,0.56,0.01,-0.34,0.01,4828,2019-03-25 16:02:21:070
-0.23,-0.11,10.57,0.05,0.0,0.56,0.01,-0.34,0.01,4833,2019-03-25 16:02:21:075
-0.23,-0.11,10.57,0.05,0.0,0.56,0.01,-0.34,0.01,4837,2019-03-25 16:02:21:079
-0.23,-0.11,10.57,0.05,0.0,0.56,0.01,-0.34,0.01,4843,2019-03-25 16:02:21:085
-0.23,-0.11,10.57,0.05,0.0,0.56,0.01,-0.34,0.01,4848,2019-03-25 16:02:21:090
-0.41,-0.11,9.35,-0.11,0.0,-0.51,0.0,0.25,0.01,4853,2019-03-25 16:02:21:095
-0.41,-0.11,9.35,-0.11,0.0,-0.51,0.0,0.25,0.01,4858,2019-03-25 16:02:21:100
-0.41,-0.11,9.35,-0.11,0.0,-0.51,0.0,0.25,0.01,4863,2019-03-25 16:02:21:105
-0.41,-0.11,9.35,-0.11,0.0,-0.51,0.0,0.25,0.01,4868,2019-03-25 16:02:21:110
-0.41,-0.11,9.35,-0.11,0.0,-0.51,0.0,0.25,0.01,4873,2019-03-25 16:02:21:115
-0.27,-0.1,10.31,0.0,0.0,0.22,0.0,-0.16,0.01,4878,2019-03-25 16:02:21:120
-0.27,-0.1,10.31,0.0,0.0,0.22,0.0,-0.16,0.01,4883,2019-03-25 16:02:21:125
-0.27,-0.1,10.31,0.0,0.0,0.22,0.0,-0.16,0.01,4888,2019-03-25 16:02:21:130
-0.27,-0.1,10.31,0.0,0.0,0.22,0.0,-0.16,0.01,4895,2019-03-25 16:02:21:137
-0.27,-0.12,9.7,0.0,0.0,0.22,0.0,-0.16,0.01,4898,2019-03-25 16:02:21:140
-0.41,-0.12,9.7,-0.12,-0.01,-0.25,0.0,0.11,0.0,4904,2019-03-25 16:02:21:146
-0.41,-0.12,9.7,-0.12,-0.01,-0.25,0.0,0.11,0.0,4909,2019-03-25 16:02:21:151
-0.41,-0.12,9.7,-0.12,-0.01,-0.25,0.0,0.11,0.0,4913,2019-03-25 16:02:21:155
-0.41,-0.12,9.7,-0.12,-0.01,-0.25,0.0,0.11,0.0,4918,2019-03-25 16:02:21:160
-0.41,-0.12,9.7,-0.12,-0.01,-0.25,0.0,0.11,0.0,4923,2019-03-25 16:02:21:165
-0.37,-0.11,9.84,-0.07,0.0,-0.15,0.0,0.05,0.0,4928,2019-03-25 16:02:21:170
-0.37,-0.11,9.84,-0.07,0.0,-0.15,0.0,0.05,0.0,4933,2019-03-25 16:02:21:175
-0.37,-0.11,9.84,-0.07,0.0,-0.15,0.0,0.05,0.0,4938,2019-03-25 16:02:21:180
-0.37,-0.11,9.84,-0.07,0.0,-0.15,0.0,0.05,0.0,4943,2019-03-25 16:02:21:185
-0.37,-0.11,9.84,-0.07,0.0,-0.15,0.0,0.05,0.0,4948,2019-03-25 16:02:21:190
-0.32,-0.11,10.03,-0.01,0.0,0.11,0.0,-0.02,0.01,4953,2019-03-25 16:02:21:195
-0.32,-0.11,10.03,-0.01,0.0,0.11,0.0,-0.02,0.01,4958,2019-03-25 16:02:21:200
-0.32,-0.11,10.03,-0.01,0.0,0.11,0.0,-0.02,0.01,4963,2019-03-25 16:02:21:205
-0.32,-0.12,9.92,-0.02,0.0,-0.1,0.0,0.01,0.0,4968,2019-03-25 16:02:21:210
-0.32,-0.12,9.92,-0.02,0.0,-0.1,0.0,0.01,0.0,4973,2019-03-25 16:02:21:215
-0.32,-0.12,9.92,-0.02,0.0,-0.1,0.0,0.01,0.0,4978,2019-03-25 16:02:21:220
-0.32,-0.12,9.92,-0.02,0.0,-0.1,0.0,0.01,0.0,4983,2019-03-25 16:02:21:225
-0.31,-0.1,9.95,0.01,0.01,0.0,0.0,0.0,0.0,4989,2019-03-25 16:02:21:231
-0.31,-0.1,9.95,0.01,0.01,0.0,0.0,0.0,0.0,4993,2019-03-25 16:02:21:235
-0.31,-0.1,9.95,0.01,0.01,0.0,0.0,0.0,0.0,4999,2019-03-25 16:02:21:241
-0.31,-0.1,9.95,0.01,0.01,0.0,0.0,0.0,0.0,5002,2019-03-25 16:02:21:244
-0.31,-0.1,9.95,0.01,0.01,0.0,0.0,0.0,0.0,5009,2019-03-25 16:02:21:251
-0.31,-0.1,9.95,0.01,0.01,0.0,0.0,0.0,0.0,5013,2019-03-25 16:02:21:255
-0.32,-0.1,9.95,0.0,0.01,-0.02,0.0,0.0,0.01,5018,2019-03-25 16:02:21:260
-0.32,-0.1,9.95,0.0,0.01,-0.02,0.0,0.0,0.01,5023,2019-03-25 16:02:21:265
-0.32,-0.1,9.95,0.0,0.01,-0.02,0.0,0.0,0.01,5028,2019-03-25 16:02:21:270
-0.32,-0.1,9.95,-0.02,-0.02,0.03,0.0,0.0,0.01,5033,2019-03-25 16:02:21:275
-0.32,-0.1,9.95,-0.02,-0.02,0.03,0.0,0.0,0.01,5038,2019-03-25 16:02:21:280
-0.32,-0.1,9.95,-0.02,-0.02,0.03,0.0,0.0,0.01,5043,2019-03-25 16:02:21:285
-0.32,-0.1,9.95,-0.02,-0.02,0.03,0.0,0.0,0.01,5048,2019-03-25 16:02:21:290
-0.32,-0.1,9.95,-0.02,-0.02,0.03,0.0,0.0,0.01,5053,2019-03-25 16:02:21:295
-0.32,-0.12,9.95,0.0,0.0,-0.01,0.0,0.0,0.0,5058,2019-03-25 16:02:21:300
-0.32,-0.12,9.95,0.0,0.0,-0.01,0.0,0.0,0.0,5063,2019-03-25 16:02:21:305
-0.3,-0.13,9.98,0.01,0.03,-0.02,0.0,0.0,0.0,5068,2019-03-25 16:02:21:310
-0.3,-0.13,9.98,0.01,0.03,-0.02,0.0,0.0,0.0,5073,2019-03-25 16:02:21:315
-0.3,-0.13,9.98,0.01,0.03,-0.02,0.0,0.0,0.0,5078,2019-03-25 16:02:21:320
-0.3,-0.13,9.98,0.01,0.03,-0.02,0.0,0.0,0.0,5083,2019-03-25 16:02:21:325
-0.33,-0.16,9.96,0.0,-0.03,0.0,0.0,0.0,0.0,5088,2019-03-25 16:02:21:330
-0.33,-0.16,9.96,0.0,-0.03,0.0,0.0,0.0,0.0,5094,2019-03-25 16:02:21:336
-0.33,-0.16,9.96,0.0,-0.03,0.0,0.0,0.0,0.0,5098,2019-03-25 16:02:21:340
-0.33,-0.16,9.96,0.0,-0.03,0.0,0.0,0.0,0.0,5103,2019-03-25 16:02:21:345
-0.29,-0.13,9.93,0.02,0.0,-0.02,0.0,0.0,0.01,5108,2019-03-25 16:02:21:350
-0.29,-0.13,9.93,0.02,0.0,-0.02,0.0,0.0,0.01,5114,2019-03-25 16:02:21:356
-0.29,-0.13,9.93,0.02,0.0,-0.02,0.0,0.0,0.01,5118,2019-03-25 16:02:21:360
-0.29,-0.13,9.93,0.02,0.0,-0.02,0.0,0.0,0.01,5123,2019-03-25 16:02:21:365
-0.29,-0.13,9.93,0.02,0.0,-0.02,0.0,0.0,0.01,5128,2019-03-25 16:02:21:370
-0.29,-0.13,9.93,0.02,0.0,-0.02,0.0,0.0,0.01,5133,2019-03-25 16:02:21:375
-0.34,-0.14,9.96,-0.02,-0.01,0.0,0.0,0.0,0.01,5139,2019-03-25 16:02:21:381
-0.34,-0.14,9.96,-0.02,-0.01,0.0,0.0,0.0,0.01,5143,2019-03-25 16:02:21:385
-0.34,-0.14,9.96,-0.02,-0.01,0.0,0.0,0.0,0.01,5148,2019-03-25 16:02:21:390
-0.34,-0.14,9.96,-0.02,-0.01,0.0,0.0,0.0,0.01,5153,2019-03-25 16:02:21:395
-0.33,-0.1,9.96,0.0,0.02,0.01,0.0,0.0,0.0,5158,2019-03-25 16:02:21:400
-0.33,-0.1,9.96,0.0,0.02,0.01,0.0,0.0,0.0,5163,2019-03-25 16:02:21:405
-0.34,-0.13,9.94,-0.02,0.0,-0.01,0.0,0.0,0.01,5168,2019-03-25 16:02:21:410
-0.34,-0.13,9.94,-0.02,0.0,-0.01,0.0,0.0,0.01,5173,2019-03-25 16:02:21:415
-0.34,-0.13,9.94,-0.02,0.0,-0.01,0.0,0.0,0.01,5179,2019-03-25 16:02:21:421
-0.34,-0.13,9.94,-0.02,0.0,-0.01,0.0,0.0,0.01,5183,2019-03-25 16:02:21:425
-0.34,-0.13,9.94,-0.02,0.0,-0.01,0.0,0.0,0.01,5188,2019-03-25 16:02:21:430
-0.34,-0.13,9.94,-0.02,0.0,-0.01,0.0,0.0,0.01,5193,2019-03-25 16:02:21:435
-0.34,-0.13,9.94,-0.02,0.0,-0.01,0.0,0.0,0.01,5198,2019-03-25 16:02:21:440
-0.32,-0.09,9.92,0.0,0.03,-0.03,0.0,0.0,0.01,5204,2019-03-25 16:02:21:446
-0.32,-0.09,9.92,0.0,0.03,-0.03,0.0,0.0,0.01,5209,2019-03-25 16:02:21:451
-0.32,-0.09,9.92,0.0,0.03,-0.03,0.0,0.0,0.01,5213,2019-03-25 16:02:21:455
-0.32,-0.09,9.92,0.0,0.03,-0.03,0.0,0.0,0.01,5218,2019-03-25 16:02:21:460
-0.32,-0.09,9.92,0.0,0.03,-0.03,0.0,0.0,0.01,5223,2019-03-25 16:02:21:465
-0.32,-0.09,9.92,0.0,0.03,-0.03,0.0,0.0,0.01,5228,2019-03-25 16:02:21:470
-0.32,-0.09,9.92,0.0,0.03,-0.03,0.0,0.0,0.01,5233,2019-03-25 16:02:21:475
-0.36,-0.1,9.97,-0.04,0.02,0.01,0.0,0.0,0.0,5238,2019-03-25 16:02:21:480
-0.36,-0.1,9.97,-0.04,0.02,0.01,0.0,0.0,0.0,5243,2019-03-25 16:02:21:485
-0.36,-0.1,9.97,-0.04,0.02,0.01,0.0,0.0,0.0,5248,2019-03-25 16:02:21:490
-0.34,-0.14,9.96,-0.01,-0.01,0.01,0.0,0.0,0.01,5253,2019-03-25 16:02:21:495
-0.34,-0.14,9.96,-0.01,-0.01,0.01,0.0,0.0,0.01,5258,2019-03-25 16:02:21:500
-0.34,-0.14,9.96,-0.01,-0.01,0.01,0.0,0.0,0.01,5263,2019-03-25 16:02:21:505
-0.31,-0.12,9.94,0.01,0.0,-0.01,0.0,0.0,0.0,5268,2019-03-25 16:02:21:510
-0.31,-0.12,9.94,0.01,0.0,-0.01,0.0,0.0,0.0,5273,2019-03-25 16:02:21:515
-0.31,-0.12,9.94,0.01,0.0,-0.01,0.0,0.0,0.0,5278,2019-03-25 16:02:21:520
-0.31,-0.12,9.94,0.01,0.0,-0.01,0.0,0.0,0.0,5283,2019-03-25 16:02:21:525
-0.31,-0.12,9.94,0.01,0.0,-0.01,0.0,0.0,0.0,5289,2019-03-25 16:02:21:531
-0.31,-0.12,9.94,0.01,0.0,-0.01,0.0,0.0,0.0,5293,2019-03-25 16:02:21:535
-0.31,-0.12,9.94,0.01,0.0,-0.01,0.0,0.0,0.0,5298,2019-03-25 16:02:21:540
-0.34,-0.11,9.93,-0.01,0.01,-0.02,0.0,0.0,0.0,5303,2019-03-25 16:02:21:545
-0.34,-0.11,9.93,-0.01,0.01,-0.02,0.0,0.0,0.0,5308,2019-03-25 16:02:21:550
-0.34,-0.11,9.93,-0.01,0.01,-0.02,0.0,0.0,0.0,5313,2019-03-25 16:02:21:555
-0.34,-0.11,9.93,-0.01,0.01,-0.02,0.0,0.0,0.0,5318,2019-03-25 16:02:21:560
-0.34,-0.11,9.93,-0.01,0.01,-0.02,0.0,0.0,0.0,5323,2019-03-25 16:02:21:565
-0.32,-0.08,9.98,0.0,0.03,0.01,0.0,0.0,0.01,5328,2019-03-25 16:02:21:570
-0.32,-0.08,9.98,0.0,0.03,0.01,0.0,0.0,0.01,5333,2019-03-25 16:02:21:575
-0.32,-0.08,9.98,0.0,0.03,0.01,0.0,0.0,0.01,5338,2019-03-25 16:02:21:580
-0.32,-0.08,9.98,0.0,0.03,0.01,0.0,0.0,0.01,5343,2019-03-25 16:02:21:585
-0.32,-0.08,9.98,0.0,0.03,0.01,0.0,0.0,0.01,5348,2019-03-25 16:02:21:590
-0.3,-0.1,9.93,0.0,-0.01,0.0,0.0,0.0,0.01,5353,2019-03-25 16:02:21:595
-0.3,-0.1,9.93,0.0,-0.01,0.0,0.0,0.0,0.01,5358,2019-03-25 16:02:21:600
-0.3,-0.1,9.93,0.0,-0.01,0.0,0.0,0.0,0.01,5363,2019-03-25 16:02:21:605
-0.33,-0.1,9.98,0.0,0.0,0.02,0.0,0.0,0.0,5368,2019-03-25 16:02:21:610
-0.33,-0.1,9.98,0.0,0.0,0.02,0.0,0.0,0.0,5373,2019-03-25 16:02:21:615
-0.33,-0.1,9.98,0.0,0.0,0.02,0.0,0.0,0.0,5378,2019-03-25 16:02:21:620
-0.33,-0.1,9.98,0.0,0.0,0.02,0.0,0.0,0.0,5382,2019-03-25 16:02:21:624
-0.33,-0.1,9.98,0.0,0.0,0.02,0.0,0.0,0.0,5389,2019-03-25 16:02:21:631
-0.33,-0.1,9.98,0.0,0.0,0.02,0.0,0.0,0.0,5393,2019-03-25 16:02:21:635
-0.33,-0.1,9.98,0.0,0.0,0.02,0.0,0.0,0.0,5398,2019-03-25 16:02:21:640
-0.32,-0.12,9.94,0.0,0.0,-0.02,0.0,0.0,0.0,5403,2019-03-25 16:02:21:645
-0.32,-0.12,9.94,0.0,0.0,-0.02,0.0,0.0,0.0,5408,2019-03-25 16:02:21:650
-0.32,-0.12,9.94,0.0,0.0,-0.02,0.0,0.0,0.0,5413,2019-03-25 16:02:21:655
-0.32,-0.12,9.94,0.0,0.0,-0.02,0.0,0.0,0.0,5418,2019-03-25 16:02:21:660
-0.32,-0.12,9.94,0.0,0.0,-0.02,0.0,0.0,0.0,5423,2019-03-25 16:02:21:665
-0.35,-0.14,9.95,-0.01,-0.03,0.0,0.0,0.0,0.0,5428,2019-03-25 16:02:21:670
-0.35,-0.14,9.95,-0.01,-0.03,0.0,0.0,0.0,0.0,5434,2019-03-25 16:02:21:676
-0.35,-0.14,9.95,-0.01,-0.03,0.0,0.0,0.0,0.0,5438,2019-03-25 16:02:21:680
-0.35,-0.14,9.95,-0.01,-0.03,0.0,0.0,0.0,0.0,5443,2019-03-25 16:02:21:685
-0.35,-0.14,9.95,-0.01,-0.03,0.0,0.0,0.0,0.0,5448,2019-03-25 16:02:21:690
-0.33,-0.13,9.96,0.0,-0.01,0.0,0.0,0.0,0.01,5453,2019-03-25 16:02:21:695
-0.33,-0.13,9.96,0.0,-0.01,0.0,0.0,0.0,0.01,5458,2019-03-25 16:02:21:700
-0.33,-0.13,9.96,0.0,-0.01,0.0,0.0,0.0,0.01,5463,2019-03-25 16:02:21:705
-0.33,-0.13,9.96,0.0,-0.01,0.0,0.0,0.0,0.01,5468,2019-03-25 16:02:21:710
-0.3,-0.13,9.95,0.02,-0.01,0.0,0.0,0.0,0.0,5473,2019-03-25 16:02:21:715
-0.3,-0.13,9.95,0.02,-0.01,0.0,0.0,0.0,0.0,5478,2019-03-25 16:02:21:720
-0.3,-0.13,9.95,0.02,-0.01,0.0,0.0,0.0,0.0,5483,2019-03-25 16:02:21:725
-0.32,-0.1,9.94,0.0,0.01,-0.01,0.0,0.0,0.0,5488,2019-03-25 16:02:21:730
-0.32,-0.1,9.94,0.0,0.01,-0.01,0.0,0.0,0.0,5493,2019-03-25 16:02:21:735
-0.32,-0.1,9.94,0.0,0.01,-0.01,0.0,0.0,0.0,5498,2019-03-25 16:02:21:740
-0.32,-0.1,9.94,0.0,0.01,-0.01,0.0,0.0,0.0,5503,2019-03-25 16:02:21:745
-0.36,-0.07,9.97,-0.03,0.04,0.01,0.0,0.0,0.01,5508,2019-03-25 16:02:21:750
-0.36,-0.07,9.97,-0.03,0.04,0.01,0.0,0.0,0.01,5513,2019-03-25 16:02:21:755
-0.36,-0.07,9.97,-0.03,0.04,0.01,0.0,0.0,0.01,5518,2019-03-25 16:02:21:760
-0.36,-0.07,9.97,-0.03,0.04,0.01,0.0,0.0,0.01,5523,2019-03-25 16:02:21:765
-0.33,-0.1,9.96,-0.03,0.04,0.01,0.0,0.0,0.01,5528,2019-03-25 16:02:21:770
-0.33,-0.1,9.96,0.0,0.01,0.01,0.0,0.0,0.01,5533,2019-03-25 16:02:21:775
-0.33,-0.1,9.96,0.0,0.01,0.01,0.0,0.0,0.01,5538,2019-03-25 16:02:21:780
-0.33,-0.1,9.96,0.0,0.01,0.01,0.0,0.0,0.01,5543,2019-03-25 16:02:21:785
-0.33,-0.1,9.96,0.0,0.01,0.01,0.0,0.0,0.01,5548,2019-03-25 16:02:21:790
-0.31,-0.1,9.98,0.01,0.01,0.02,0.0,0.0,0.0,5553,2019-03-25 16:02:21:795
-0.31,-0.1,9.98,0.01,0.01,0.02,0.0,0.0,0.0,5558,2019-03-25 16:02:21:800
-0.31,-0.1,9.98,0.01,0.01,0.02,0.0,0.0,0.0,5563,2019-03-25 16:02:21:805
-0.31,-0.12,9.95,0.02,0.0,0.0,0.0,0.0,0.0,5568,2019-03-25 16:02:21:810
-0.31,-0.12,9.95,0.02,0.0,0.0,0.0,0.0,0.0,5573,2019-03-25 16:02:21:815
-0.31,-0.12,9.95,0.02,0.0,0.0,0.0,0.0,0.0,5578,2019-03-25 16:02:21:820
-0.31,-0.12,9.95,0.02,0.0,0.0,0.0,0.0,0.0,5583,2019-03-25 16:02:21:825
-0.31,-0.12,9.95,0.02,0.0,0.0,0.0,0.0,0.0,5589,2019-03-25 16:02:21:831
-0.31,-0.12,9.95,0.02,0.0,0.0,0.0,0.0,0.0,5593,2019-03-25 16:02:21:835
-0.31,-0.12,9.95,0.02,0.0,0.0,0.0,0.0,0.0,5598,2019-03-25 16:02:21:840
-0.34,-0.13,9.9,-0.01,-0.01,-0.04,0.0,0.0,0.01,5603,2019-03-25 16:02:21:845
-0.34,-0.13,9.9,-0.01,-0.01,-0.04,0.0,0.0,0.01,5610,2019-03-25 16:02:21:852
-0.34,-0.13,9.9,-0.01,-0.01,-0.04,0.0,0.0,0.01,5613,2019-03-25 16:02:21:855
-0.34,-0.13,9.9,-0.01,-0.01,-0.04,0.0,0.0,0.01,5618,2019-03-25 16:02:21:860
-0.35,-0.11,9.97,-0.01,-0.01,-0.04,0.0,0.0,0.01,5623,2019-03-25 16:02:21:865
-0.35,-0.11,9.97,-0.01,-0.01,-0.04,0.0,0.0,0.01,5630,2019-03-25 16:02:21:872
-0.35,-0.11,9.97,-0.01,-0.01,-0.04,0.0,0.0,0.01,5632,2019-03-25 16:02:21:874
-0.35,-0.11,9.97,-0.01,0.0,0.02,0.0,0.0,0.0,5638,2019-03-25 16:02:21:880
-0.35,-0.11,9.97,-0.01,0.0,0.02,0.0,0.0,0.0,5644,2019-03-25 16:02:21:886
-0.35,-0.11,9.97,-0.01,0.0,0.02,0.0,0.0,0.0,5649,2019-03-25 16:02:21:891
-0.31,-0.14,9.98,0.02,-0.02,0.02,0.0,0.0,0.01,5653,2019-03-25 16:02:21:895
-0.31,-0.14,9.98,0.02,-0.02,0.02,0.0,0.0,0.01,5658,2019-03-25 16:02:21:900
-0.31,-0.14,9.98,0.02,-0.02,0.02,0.0,0.0,0.01,5663,2019-03-25 16:02:21:905
-0.31,-0.14,9.98,0.02,-0.02,0.02,0.0,0.0,0.01,5668,2019-03-25 16:02:21:910
-0.31,-0.14,9.98,0.02,-0.02,0.02,0.0,0.0,0.01,5673,2019-03-25 16:02:21:915
-0.36,-0.12,9.92,-0.02,0.0,-0.03,0.0,0.0,0.0,5678,2019-03-25 16:02:21:920
-0.36,-0.12,9.92,-0.02,0.0,-0.03,0.0,0.0,0.0,5682,2019-03-25 16:02:21:924
-0.36,-0.1,9.95,-0.02,0.0,-0.03,0.0,0.0,0.0,5689,2019-03-25 16:02:21:931
-0.36,-0.1,9.95,-0.02,0.0,-0.03,0.0,0.0,0.0,5693,2019-03-25 16:02:21:935
-0.36,-0.1,9.95,-0.02,0.0,-0.03,0.0,0.0,0.0,5698,2019-03-25 16:02:21:940
-0.34,-0.11,9.96,-0.02,0.0,-0.03,0.0,0.0,0.0,5703,2019-03-25 16:02:21:945
-0.34,-0.11,9.96,-0.01,0.0,0.0,0.0,0.0,0.0,5708,2019-03-25 16:02:21:950
-0.34,-0.11,9.96,-0.01,0.0,0.0,0.0,0.0,0.0,5713,2019-03-25 16:02:21:955
-0.34,-0.11,9.96,-0.01,0.0,0.0,0.0,0.0,0.0,5718,2019-03-25 16:02:21:960
-0.34,-0.11,9.96,-0.01,0.0,0.0,0.0,0.0,0.0,5723,2019-03-25 16:02:21:965
-0.34,-0.11,9.96,-0.01,0.0,0.0,0.0,0.0,0.0,5728,2019-03-25 16:02:21:970
-0.34,-0.11,9.96,-0.01,0.0,0.0,0.0,0.0,0.0,5733,2019-03-25 16:02:21:975
-0.33,-0.11,9.98,0.0,0.0,0.02,0.0,0.0,0.01,5738,2019-03-25 16:02:21:980
-0.33,-0.11,9.98,0.0,0.0,0.02,0.0,0.0,0.01,5744,2019-03-25 16:02:21:986
-0.33,-0.11,9.98,0.0,0.0,0.02,0.0,0.0,0.01,5747,2019-03-25 16:02:21:989
-0.33,-0.11,9.98,0.0,0.0,0.02,0.0,0.0,0.01,5753,2019-03-25 16:02:21:995
-0.37,-0.14,9.99,-0.03,-0.01,0.02,0.0,0.0,0.0,5759,2019-03-25 16:02:22:001
-0.37,-0.14,9.99,-0.03,-0.01,0.02,0.0,0.0,0.0,5763,2019-03-25 16:02:22:005
-0.37,-0.14,9.99,-0.03,-0.01,0.02,0.0,0.0,0.0,5768,2019-03-25 16:02:22:010
-0.37,-0.14,9.99,-0.03,-0.01,0.02,0.0,0.0,0.0,5773,2019-03-25 16:02:22:015
-0.32,-0.11,9.96,-0.03,-0.01,0.02,0.0,0.0,0.0,5778,2019-03-25 16:02:22:020
-0.32,-0.11,9.96,-0.03,-0.01,0.02,0.0,0.0,0.01,5783,2019-03-25 16:02:22:025
-0.32,-0.11,9.96,0.01,0.0,0.0,0.0,0.0,0.01,5788,2019-03-25 16:02:22:030
-0.32,-0.11,9.96,0.01,0.0,0.0,0.0,0.0,0.01,5792,2019-03-25 16:02:22:034
-0.32,-0.11,9.96,0.01,0.0,0.0,0.0,0.0,0.01,5799,2019-03-25 16:02:22:041
-0.32,-0.09,9.94,0.01,0.03,-0.02,0.0,0.0,0.0,5803,2019-03-25 16:02:22:045
-0.32,-0.09,9.94,0.01,0.03,-0.02,0.0,0.0,0.0,5808,2019-03-25 16:02:22:050
-0.32,-0.09,9.94,0.01,0.03,-0.02,0.0,0.0,0.0,5813,2019-03-25 16:02:22:055
-0.32,-0.09,9.94,0.01,0.03,-0.02,0.0,0.0,0.0,5818,2019-03-25 16:02:22:060
-0.32,-0.09,9.94,0.01,0.03,-0.02,0.0,0.0,0.0,5823,2019-03-25 16:02:22:065
-0.33,-0.09,9.92,0.0,0.02,-0.03,0.0,0.0,0.01,5828,2019-03-25 16:02:22:070
-0.33,-0.09,9.92,0.0,0.02,-0.03,0.0,0.0,0.01,5833,2019-03-25 16:02:22:075
-0.33,-0.09,9.92,0.0,0.02,-0.03,0.0,0.0,0.01,5837,2019-03-25 16:02:22:079
-0.33,-0.09,9.92,0.0,0.02,-0.03,0.0,0.0,0.01,5843,2019-03-25 16:02:22:085
-0.33,-0.09,9.92,0.0,0.02,-0.03,0.0,0.0,0.01,5848,2019-03-25 16:02:22:090
-0.33,-0.09,9.92,0.0,0.02,-0.03,0.0,0.0,0.0,5853,2019-03-25 16:02:22:095
-0.33,-0.09,9.92,0.0,0.02,-0.03,0.0,0.0,0.0,5858,2019-03-25 16:02:22:100
-0.33,-0.09,9.92,0.0,0.02,-0.03,0.0,0.0,0.0,5863,2019-03-25 16:02:22:105
-0.33,-0.09,9.92,0.0,0.02,-0.03,0.0,0.0,0.0,5868,2019-03-25 16:02:22:110
-0.31,-0.13,9.95,0.0,0.02,-0.03,0.0,0.0,0.0,5873,2019-03-25 16:02:22:115
-0.31,-0.13,9.95,0.02,-0.01,0.0,0.0,0.0,0.0,5877,2019-03-25 16:02:22:119
-0.31,-0.13,9.95,0.02,-0.01,0.0,0.0,0.0,0.0,5883,2019-03-25 16:02:22:125
-0.31,-0.13,9.95,0.02,-0.01,0.0,0.0,0.0,0.0,5888,2019-03-25 16:02:22:130
-0.31,-0.13,9.95,0.02,-0.01,0.0,0.0,0.0,0.0,5893,2019-03-25 16:02:22:135
-0.31,-0.13,9.95,0.02,-0.01,0.0,0.0,0.0,0.0,5897,2019-03-25 16:02:22:139
-0.31,-0.13,9.95,0.02,-0.01,0.0,0.0,0.0,0.0,5903,2019-03-25 16:02:22:145
-0.31,-0.13,9.95,0.02,-0.01,0.0,0.0,0.0,0.0,5908,2019-03-25 16:02:22:150
-0.31,-0.13,9.95,0.02,-0.01,0.0,0.0,0.0,0.0,5913,2019-03-25 16:02:22:155
-0.34,-0.13,9.93,0.0,-0.01,-0.01,0.0,0.0,0.0,5918,2019-03-25 16:02:22:160
-0.34,-0.13,9.93,0.0,-0.01,-0.01,0.0,0.0,0.0,5923,2019-03-25 16:02:22:165
-0.34,-0.13,9.93,0.0,-0.01,-0.01,0.0,0.0,0.0,5928,2019-03-25 16:02:22:170
-0.34,-0.13,9.93,0.0,-0.01,-0.01,0.0,0.0,0.0,5933,2019-03-25 16:02:22:175
-0.3,-0.13,9.97,0.03,-0.01,0.02,0.0,0.0,0.01,5938,2019-03-25 16:02:22:180
-0.3,-0.13,9.97,0.03,-0.01,0.02,0.0,0.0,0.01,5946,2019-03-25 16:02:22:188
-0.3,-0.13,9.97,0.03,-0.01,0.02,0.0,0.0,0.01,5948,2019-03-25 16:02:22:190
-0.35,-0.1,9.96,-0.01,0.01,0.01,0.0,0.0,0.01,5952,2019-03-25 16:02:22:194
-0.35,-0.1,9.96,-0.01,0.01,0.01,0.0,0.0,0.01,5958,2019-03-25 16:02:22:200
-0.35,-0.1,9.96,-0.01,0.01,0.01,0.0,0.0,0.01,5964,2019-03-25 16:02:22:206
-0.35,-0.1,9.92,-0.01,0.01,-0.02,0.0,0.0,0.0,5969,2019-03-25 16:02:22:211
-0.35,-0.1,9.92,-0.01,0.01,-0.02,0.0,0.0,0.0,5974,2019-03-25 16:02:22:216
-0.35,-0.1,9.92,-0.01,0.01,-0.02,0.0,0.0,0.0,5979,2019-03-25 16:02:22:221
-0.35,-0.1,9.92,-0.01,0.01,-0.02,0.0,0.0,0.0,5983,2019-03-25 16:02:22:225
-0.35,-0.1,9.92,-0.01,0.01,-0.02,0.0,0.0,0.0,5988,2019-03-25 16:02:22:230
-0.35,-0.1,9.92,-0.01,0.01,-0.02,0.0,0.0,0.0,5992,2019-03-25 16:02:22:234
-0.35,-0.1,9.92,-0.01,0.01,-0.02,0.0,0.0,0.0,5997,2019-03-25 16:02:22:239
-0.32,-0.09,9.96,0.01,0.02,0.02,0.0,0.0,0.0,6003,2019-03-25 16:02:22:245
-0.32,-0.09,9.96,0.01,0.02,0.02,0.0,0.0,0.0,6008,2019-03-25 16:02:22:250
-0.32,-0.09,9.96,0.01,0.02,0.02,0.0,0.0,0.0,6013,2019-03-25 16:02:22:255
-0.28,-0.12,9.96,0.05,0.0,0.02,0.0,0.0,0.0,6018,2019-03-25 16:02:22:260
-0.28,-0.12,9.96,0.05,0.0,0.02,0.0,0.0,0.0,6023,2019-03-25 16:02:22:265
-0.28,-0.12,9.96,0.05,0.0,0.02,0.0,0.0,0.0,6028,2019-03-25 16:02:22:270
-0.28,-0.12,9.96,0.0,0.01,0.0,0.0,0.0,0.0,6033,2019-03-25 16:02:22:275
-0.28,-0.12,9.96,0.0,0.01,0.0,0.0,0.0,0.0,6038,2019-03-25 16:02:22:280
-0.28,-0.12,9.96,0.0,0.01,0.0,0.0,0.0,0.0,6043,2019-03-25 16:02:22:285
-0.28,-0.12,9.96,0.0,0.01,0.0,0.0,0.0,0.0,6048,2019-03-25 16:02:22:290
-0.32,-0.13,9.94,0.0,0.0,0.0,0.0,0.0,0.0,6053,2019-03-25 16:02:22:295
-0.32,-0.13,9.94,0.0,0.0,0.0,0.0,0.0,0.0,6058,2019-03-25 16:02:22:300
-0.32,-0.13,9.94,0.0,0.0,0.0,0.0,0.0,0.0,6063,2019-03-25 16:02:22:305
-0.33,-0.13,10.0,0.0,-0.01,0.05,0.0,0.0,0.0,6068,2019-03-25 16:02:22:310
-0.33,-0.13,10.0,0.0,-0.01,0.05,0.0,0.0,0.0,6073,2019-03-25 16:02:22:315
-0.33,-0.13,10.0,0.0,-0.01,0.05,0.0,0.0,0.0,6078,2019-03-25 16:02:22:320
-0.33,-0.13,10.0,0.0,-0.01,0.05,0.0,0.0,0.0,6083,2019-03-25 16:02:22:325
-0.33,-0.13,10.0,0.0,-0.01,0.05,0.0,0.0,0.0,6088,2019-03-25 16:02:22:330
-0.33,-0.13,10.0,0.0,-0.01,0.05,0.0,0.0,0.0,6093,2019-03-25 16:02:22:335
-0.33,-0.13,10.0,0.0,-0.01,0.05,0.0,0.0,0.0,6098,2019-03-25 16:02:22:340
-0.34,-0.13,10.0,0.0,-0.01,0.04,0.0,0.0,0.0,6103,2019-03-25 16:02:22:345
-0.34,-0.13,10.0,0.0,-0.01,0.04,0.0,0.0,0.0,6108,2019-03-25 16:02:22:350
-0.34,-0.13,10.0,0.0,-0.01,0.04,0.0,0.0,0.0,6113,2019-03-25 16:02:22:355
-0.34,-0.13,10.0,0.0,-0.01,0.04,0.0,0.0,0.0,6118,2019-03-25 16:02:22:360
-0.34,-0.13,10.0,0.0,-0.01,0.04,0.0,0.0,0.0,6123,2019-03-25 16:02:22:365
-0.34,-0.13,10.0,0.0,-0.01,0.04,0.0,0.0,0.0,6128,2019-03-25 16:02:22:370
-0.34,-0.13,10.0,0.0,-0.01,0.04,0.0,0.0,0.0,6133,2019-03-25 16:02:22:375
-0.34,-0.16,9.94,0.0,-0.04,0.0,0.0,0.0,0.0,6138,2019-03-25 16:02:22:380
-0.34,-0.16,9.94,0.0,-0.04,0.0,0.0,0.0,0.0,6144,2019-03-25 16:02:22:386
-0.34,-0.16,9.94,0.0,-0.04,0.0,0.0,0.0,0.0,6148,2019-03-25 16:02:22:390
-0.33,-0.12,9.98,0.0,0.0,0.02,0.0,0.0,0.01,6153,2019-03-25 16:02:22:395
-0.33,-0.12,9.98,0.0,0.0,0.02,0.0,0.0,0.01,6159,2019-03-25 16:02:22:401
-0.33,-0.12,9.98,0.0,0.0,0.02,0.0,0.0,0.01,6163,2019-03-25 16:02:22:405
-0.36,-0.12,9.92,-0.03,0.0,-0.02,0.0,0.0,0.0,6168,2019-03-25 16:02:22:410
-0.36,-0.12,9.92,-0.03,0.0,-0.02,0.0,0.0,0.0,6173,2019-03-25 16:02:22:415
-0.36,-0.12,9.92,-0.03,0.0,-0.02,0.0,0.0,0.0,6179,2019-03-25 16:02:22:421
-0.36,-0.12,9.92,-0.03,0.0,-0.02,0.0,0.0,0.0,6183,2019-03-25 16:02:22:425
-0.36,-0.12,9.92,-0.03,0.0,-0.02,0.0,0.0,0.0,6188,2019-03-25 16:02:22:430
-0.36,-0.12,9.92,-0.03,0.0,-0.02,0.0,0.0,0.0,6194,2019-03-25 16:02:22:436
-0.36,-0.12,9.92,-0.03,0.0,-0.02,0.0,0.0,0.0,6198,2019-03-25 16:02:22:440
-0.36,-0.13,9.95,-0.02,0.0,0.0,0.0,0.0,0.0,6203,2019-03-25 16:02:22:445
-0.36,-0.13,9.95,-0.02,0.0,0.0,0.0,0.0,0.0,6208,2019-03-25 16:02:22:450
-0.36,-0.13,9.95,-0.02,0.0,0.0,0.0,0.0,0.0,6213,2019-03-25 16:02:22:455
-0.34,-0.14,9.96,0.0,-0.01,0.01,0.0,0.0,0.0,6218,2019-03-25 16:02:22:460
-0.34,-0.14,9.96,0.0,-0.01,0.01,0.0,0.0,0.0,6223,2019-03-25 16:02:22:465
-0.34,-0.14,9.96,0.0,-0.01,0.01,0.0,0.0,0.0,6228,2019-03-25 16:02:22:470
-0.34,-0.14,9.96,0.0,-0.01,0.01,0.0,0.0,0.0,6233,2019-03-25 16:02:22:475
-0.37,-0.06,10.0,-0.03,0.05,0.03,0.0,0.0,0.0,6238,2019-03-25 16:02:22:480
-0.37,-0.06,10.0,-0.03,0.05,0.03,0.0,0.0,0.0,6243,2019-03-25 16:02:22:485
-0.37,-0.06,10.0,-0.03,0.05,0.03,0.0,0.0,0.0,6247,2019-03-25 16:02:22:489
-0.34,-0.14,9.93,0.0,-0.01,-0.02,0.0,0.0,0.01,6253,2019-03-25 16:02:22:495
-0.34,-0.14,9.93,0.0,-0.01,-0.02,0.0,0.0,0.01,6258,2019-03-25 16:02:22:500
-0.34,-0.14,9.93,0.0,-0.01,-0.02,0.0,0.0,0.01,6263,2019-03-25 16:02:22:505
-0.34,-0.13,9.89,0.0,0.0,-0.06,0.0,0.0,0.0,6268,2019-03-25 16:02:22:510
-0.34,-0.13,9.89,0.0,0.0,-0.06,0.0,0.0,0.0,6273,2019-03-25 16:02:22:515
-0.34,-0.13,9.89,0.0,0.0,-0.06,0.0,0.0,0.0,6278,2019-03-25 16:02:22:520
-0.34,-0.13,9.89,0.0,0.0,-0.06,0.0,0.0,0.0,6283,2019-03-25 16:02:22:525
-0.29,-0.13,10.0,0.0,0.0,-0.06,0.0,0.0,0.01,6288,2019-03-25 16:02:22:530
-0.29,-0.13,10.0,0.05,0.0,0.05,0.0,0.0,0.01,6294,2019-03-25 16:02:22:536
-0.29,-0.13,10.0,0.05,0.0,0.05,0.0,0.0,0.01,6298,2019-03-25 16:02:22:540
-0.29,-0.13,10.0,0.05,0.0,0.05,0.0,0.0,0.01,6303,2019-03-25 16:02:22:545
-0.29,-0.13,10.0,0.05,0.0,0.05,0.0,0.0,0.01,6310,2019-03-25 16:02:22:552
-0.29,-0.13,10.0,0.05,0.0,0.05,0.0,0.0,0.01,6313,2019-03-25 16:02:22:555
-0.33,-0.1,9.96,0.0,0.01,0.0,0.0,0.0,0.0,6318,2019-03-25 16:02:22:560
-0.33,-0.1,9.96,0.0,0.01,0.0,0.0,0.0,0.0,6323,2019-03-25 16:02:22:565
-0.33,-0.1,9.96,0.0,0.01,0.0,0.0,0.0,0.0,6328,2019-03-25 16:02:22:570
-0.34,-0.1,9.97,0.0,0.01,0.0,0.0,0.0,0.01,6334,2019-03-25 16:02:22:576
-0.34,-0.1,9.97,0.0,0.02,0.02,0.0,0.0,0.01,6339,2019-03-25 16:02:22:581
-0.34,-0.1,9.97,0.0,0.02,0.02,0.0,0.0,0.01,6343,2019-03-25 16:02:22:585
-0.34,-0.1,9.97,0.0,0.02,0.02,0.0,0.0,0.01,6348,2019-03-25 16:02:22:590
-0.34,-0.11,9.99,0.0,0.01,0.04,0.0,0.0,0.0,6353,2019-03-25 16:02:22:595
-0.34,-0.11,9.99,0.0,0.01,0.04,0.0,0.0,0.0,6360,2019-03-25 16:02:22:602
-0.34,-0.11,9.99,0.0,0.01,0.04,0.0,0.0,0.0,6364,2019-03-25 16:02:22:606
-0.34,-0.11,9.99,0.0,0.01,0.04,0.0,0.0,0.0,6368,2019-03-25 16:02:22:610
-0.29,-0.11,9.99,0.0,0.01,0.04,0.0,0.0,0.0,6373,2019-03-25 16:02:22:615
-0.29,-0.11,9.99,0.0,0.01,0.04,0.0,0.0,0.0,6379,2019-03-25 16:02:22:621
-0.29,-0.11,9.99,0.0,0.01,0.04,0.0,0.0,0.01,6383,2019-03-25 16:02:22:625
-0.35,-0.12,9.96,0.04,0.0,0.03,0.0,0.0,0.01,6388,2019-03-25 16:02:22:630
-0.35,-0.12,9.96,0.04,0.0,0.03,0.0,0.0,0.01,6394,2019-03-25 16:02:22:636
-0.35,-0.12,9.96,0.04,0.0,0.03,0.0,0.0,0.01,6399,2019-03-25 16:02:22:641
-0.35,-0.12,9.96,0.04,0.0,0.03,0.0,0.0,0.01,6403,2019-03-25 16:02:22:645
-0.35,-0.12,9.96,0.04,0.0,0.03,0.0,0.0,0.01,6410,2019-03-25 16:02:22:652
-0.35,-0.12,9.96,0.04,0.0,0.03,0.0,0.0,0.01,6416,2019-03-25 16:02:22:658
-0.34,-0.12,9.98,-0.01,0.0,0.02,0.0,0.0,0.01,6417,2019-03-25 16:02:22:659
-0.34,-0.12,9.98,-0.01,0.0,0.02,0.0,0.0,0.01,6423,2019-03-25 16:02:22:665
-0.34,-0.12,9.98,-0.01,0.0,0.02,0.0,0.0,0.01,6430,2019-03-25 16:02:22:672
-0.34,-0.12,9.98,-0.01,0.0,0.02,0.0,0.0,0.01,6433,2019-03-25 16:02:22:675
-0.32,-0.12,9.97,0.01,0.0,0.01,0.0,0.0,0.0,6438,2019-03-25 16:02:22:680
-0.32,-0.12,9.97,0.01,0.0,0.01,0.0,0.0,0.0,6443,2019-03-25 16:02:22:685
-0.32,-0.12,9.97,0.01,0.0,0.01,0.0,0.0,0.0,6448,2019-03-25 16:02:22:690
-0.32,-0.12,9.97,0.01,0.0,0.01,0.0,0.0,0.0,6453,2019-03-25 16:02:22:695
-0.35,-0.12,9.98,-0.02,0.0,0.03,0.0,0.0,0.0,6458,2019-03-25 16:02:22:700
-0.35,-0.12,9.98,-0.02,0.0,0.03,0.0,0.0,0.0,6463,2019-03-25 16:02:22:705
-0.34,-0.13,9.93,0.0,-0.01,-0.02,0.0,0.0,0.0,6468,2019-03-25 16:02:22:710
-0.34,-0.13,9.93,0.0,-0.01,-0.02,0.0,0.0,0.0,6475,2019-03-25 16:02:22:717
-0.34,-0.13,9.93,0.0,-0.01,-0.02,0.0,0.0,0.0,6478,2019-03-25 16:02:22:720
-0.34,-0.13,9.93,0.0,-0.01,-0.02,0.0,0.0,0.0,6483,2019-03-25 16:02:22:725
-0.35,-0.12,9.93,-0.01,0.0,-0.02,0.0,0.0,0.0,6492,2019-03-25 16:02:22:734
-0.35,-0.12,9.93,-0.01,0.0,-0.02,0.0,0.0,0.0,6495,2019-03-25 16:02:22:737
-0.35,-0.12,9.93,-0.01,0.0,-0.02,0.0,0.0,0.0,6498,2019-03-25 16:02:22:740
-0.35,-0.12,9.93,-0.01,0.0,-0.02,0.0,0.0,0.0,6503,2019-03-25 16:02:22:745
-0.35,-0.12,9.93,-0.01,0.0,-0.02,0.0,0.0,0.0,6508,2019-03-25 16:02:22:750
-0.35,-0.12,9.93,-0.01,0.0,-0.02,0.0,0.0,0.0,6513,2019-03-25 16:02:22:755
-0.34,-0.08,9.95,-0.01,0.03,0.0,0.0,0.0,0.0,6519,2019-03-25 16:02:22:761
-0.34,-0.08,9.95,-0.01,0.03,0.0,0.0,0.0,0.0,6523,2019-03-25 16:02:22:765
-0.34,-0.08,9.95,-0.01,0.03,0.0,0.0,0.0,0.0,6528,2019-03-25 16:02:22:770
-0.34,-0.08,9.95,-0.01,0.03,0.0,0.0,0.0,0.0,6534,2019-03-25 16:02:22:776
-0.3,-0.09,9.95,0.02,0.02,0.0,0.0,0.0,0.0,6538,2019-03-25 16:02:22:780
-0.3,-0.09,9.95,0.02,0.02,0.0,0.0,0.0,0.0,6544,2019-03-25 16:02:22:786
-0.3,-0.09,9.95,0.02,0.02,0.0,0.0,0.0,0.0,6548,2019-03-25 16:02:22:790
-0.32,-0.09,9.97,0.0,0.02,0.01,0.0,0.0,0.0,6553,2019-03-25 16:02:22:795
-0.32,-0.09,9.97,0.0,0.02,0.01,0.0,0.0,0.0,6559,2019-03-25 16:02:22:801
-0.32,-0.09,9.97,0.0,0.02,0.01,0.0,0.0,0.0,6564,2019-03-25 16:02:22:806
-0.32,-0.09,9.97,0.0,0.02,0.01,0.0,0.0,0.0,6567,2019-03-25 16:02:22:809
-0.34,-0.09,9.95,0.0,0.02,0.0,0.0,0.0,0.0,6575,2019-03-25 16:02:22:817
-0.34,-0.09,9.95,0.0,0.02,0.0,0.0,0.0,0.0,6582,2019-03-25 16:02:22:824
-0.34,-0.09,9.95,0.0,0.02,0.0,0.0,0.0,0.0,6583,2019-03-25 16:02:22:825
-0.34,-0.16,9.99,-0.01,-0.04,0.03,0.0,0.0,0.0,6590,2019-03-25 16:02:22:832
-0.34,-0.16,9.99,-0.01,-0.04,0.03,0.0,0.0,0.0,6594,2019-03-25 16:02:22:836
-0.34,-0.16,9.99,-0.01,-0.04,0.03,0.0,0.0,0.0,6598,2019-03-25 16:02:22:840
-0.33,-0.12,9.92,-0.01,-0.04,0.03,0.0,0.0,0.0,6603,2019-03-25 16:02:22:845
-0.33,-0.12,9.92,0.0,0.0,-0.02,0.0,0.0,0.0,6608,2019-03-25 16:02:22:850
-0.33,-0.12,9.92,0.0,0.0,-0.02,0.0,0.0,0.0,6613,2019-03-25 16:02:22:855
-0.33,-0.12,9.92,0.0,0.0,-0.02,0.0,0.0,0.0,6619,2019-03-25 16:02:22:861
-0.33,-0.12,9.92,0.0,0.0,-0.02,0.0,0.0,0.0,6622,2019-03-25 16:02:22:864
-0.33,-0.12,9.96,0.0,0.0,-0.02,0.0,0.0,0.0,6629,2019-03-25 16:02:22:871
-0.33,-0.12,9.96,0.0,0.0,-0.02,0.0,0.0,0.0,6634,2019-03-25 16:02:22:876
-0.34,-0.09,9.94,0.0,0.0,0.01,0.0,0.0,0.0,6638,2019-03-25 16:02:22:880
-0.34,-0.09,9.94,0.0,0.0,0.01,0.0,0.0,0.0,6644,2019-03-25 16:02:22:886
-0.34,-0.09,9.94,0.0,0.0,0.01,0.0,0.0,0.0,6650,2019-03-25 16:02:22:892
-0.34,-0.09,9.94,0.0,0.0,0.01,0.0,0.0,0.0,6653,2019-03-25 16:02:22:895
-0.37,-0.12,9.93,-0.03,0.0,-0.01,0.0,0.0,0.0,6660,2019-03-25 16:02:22:902
-0.37,-0.12,9.93,-0.03,0.0,-0.01,0.0,0.0,0.0,6664,2019-03-25 16:02:22:906
-0.35,-0.12,9.96,-0.01,0.0,0.01,0.0,0.0,0.0,6671,2019-03-25 16:02:22:913
-0.35,-0.12,9.96,-0.01,0.0,0.01,0.0,0.0,0.0,6673,2019-03-25 16:02:22:915
-0.35,-0.12,9.96,-0.01,0.0,0.01,0.0,0.0,0.0,6678,2019-03-25 16:02:22:920
-0.35,-0.12,9.96,-0.01,0.0,0.01,0.0,0.0,0.0,6683,2019-03-25 16:02:22:925
-0.32,-0.11,9.98,0.0,0.0,0.02,0.0,0.0,0.01,6688,2019-03-25 16:02:22:930
-0.32,-0.11,9.98,0.0,0.0,0.02,0.0,0.0,0.01,6693,2019-03-25 16:02:22:935
-0.32,-0.11,9.98,0.0,0.0,0.02,0.0,0.0,0.01,6700,2019-03-25 16:02:22:942
-0.32,-0.11,9.98,0.0,0.0,0.02,0.0,0.0,0.01,6705,2019-03-25 16:02:22:947
-0.32,-0.11,9.98,0.0,0.0,0.02,0.0,0.0,0.01,6708,2019-03-25 16:02:22:950
-0.32,-0.11,9.98,0.0,0.0,0.02,0.0,0.0,0.01,6714,2019-03-25 16:02:22:956
-0.33,-0.11,9.96,0.0,0.0,0.0,0.0,0.0,0.0,6721,2019-03-25 16:02:22:963
-0.33,-0.11,9.96,0.0,0.0,0.0,0.0,0.0,0.0,6723,2019-03-25 16:02:22:965
-0.33,-0.11,9.96,0.0,0.0,0.0,0.0,0.0,0.0,6729,2019-03-25 16:02:22:971
-0.33,-0.11,9.96,0.0,0.0,0.0,0.0,0.0,0.0,6733,2019-03-25 16:02:22:975
-0.33,-0.11,9.96,0.01,-0.01,-0.02,0.0,0.0,0.0,6739,2019-03-25 16:02:22:981
-0.33,-0.11,9.96,0.01,-0.01,-0.02,0.0,0.0,0.0,6743,2019-03-25 16:02:22:985
-0.33,-0.11,9.96,0.01,-0.01,-0.02,0.0,0.0,0.0,6748,2019-03-25 16:02:22:990
-0.34,-0.14,9.95,0.0,-0.01,0.0,0.0,0.0,0.0,6755,2019-03-25 16:02:22:997
-0.34,-0.14,9.95,0.0,-0.01,0.0,0.0,0.0,0.0,6758,2019-03-25 16:02:23:000
-0.34,-0.14,9.95,0.0,-0.01,0.0,0.0,0.0,0.0,6763,2019-03-25 16:02:23:005
-0.34,-0.14,9.95,0.0,-0.01,0.0,0.0,0.0,0.0,6769,2019-03-25 16:02:23:011
-0.31,-0.11,9.96,0.02,0.0,0.01,0.0,0.0,0.0,6775,2019-03-25 16:02:23:017
-0.31,-0.11,9.96,0.02,0.0,0.01,0.0,0.0,0.0,6781,2019-03-25 16:02:23:023
-0.31,-0.11,9.96,0.02,0.0,0.01,0.0,0.0,0.0,6782,2019-03-25 16:02:23:024
-0.32,-0.1,9.93,0.01,0.01,-0.01,0.0,0.0,0.0,6790,2019-03-25 16:02:23:032
-0.32,-0.1,9.93,0.01,0.01,-0.01,0.0,0.0,0.0,6794,2019-03-25 16:02:23:036
-0.32,-0.1,9.93,0.01,0.01,-0.01,0.0,0.0,0.0,6798,2019-03-25 16:02:23:040
-0.32,-0.1,9.93,0.01,0.01,-0.01,0.0,0.0,0.0,6803,2019-03-25 16:02:23:045
-0.32,-0.1,9.93,0.01,0.01,-0.01,0.0,0.0,0.0,6809,2019-03-25 16:02:23:051
-0.32,-0.1,9.93,0.01,0.01,-0.01,0.0,0.0,0.0,6813,2019-03-25 16:02:23:055
-0.35,-0.15,9.95,-0.01,-0.03,0.0,0.0,0.0,0.01,6822,2019-03-25 16:02:23:064
-0.35,-0.15,9.95,-0.01,-0.03,0.0,0.0,0.0,0.01,6823,2019-03-25 16:02:23:065
-0.35,-0.15,9.95,-0.01,-0.03,0.0,0.0,0.0,0.01,6829,2019-03-25 16:02:23:071
-0.35,-0.15,9.95,-0.01,-0.03,0.0,0.0,0.0,0.01,6833,2019-03-25 16:02:23:075
-0.35,-0.15,9.95,-0.01,-0.03,0.0,0.0,0.0,0.01,6839,2019-03-25 16:02:23:081
-0.35,-0.15,9.95,-0.01,-0.03,0.0,0.0,0.0,0.01,6845,2019-03-25 16:02:23:087
-0.33,-0.12,9.95,0.0,0.0,0.0,0.0,0.0,0.0,6848,2019-03-25 16:02:23:090
-0.33,-0.12,9.95,0.0,0.0,0.0,0.0,0.0,0.0,6853,2019-03-25 16:02:23:095
-0.33,-0.12,9.95,0.0,0.0,0.0,0.0,0.0,0.0,6858,2019-03-25 16:02:23:100
-0.33,-0.12,9.95,0.0,0.0,0.0,0.0,0.0,0.0,6864,2019-03-25 16:02:23:106
-0.3,-0.07,9.98,0.03,0.04,0.03,0.0,0.0,0.0,6868,2019-03-25 16:02:23:110
-0.3,-0.07,9.98,0.03,0.04,0.03,0.0,0.0,0.0,6873,2019-03-25 16:02:23:115
-0.3,-0.07,9.98,0.03,0.04,0.03,0.0,0.0,0.0,6879,2019-03-25 16:02:23:121
-0.33,-0.12,9.96,0.01,0.0,0.01,0.0,0.0,0.0,6883,2019-03-25 16:02:23:125
-0.33,-0.12,9.96,0.01,0.0,0.01,0.0,0.0,0.0,6888,2019-03-25 16:02:23:130
-0.33,-0.12,9.96,0.01,0.0,0.01,0.0,0.0,0.0,6894,2019-03-25 16:02:23:136
-0.33,-0.12,9.96,0.01,0.0,0.01,0.0,0.0,0.0,6898,2019-03-25 16:02:23:140
-0.33,-0.12,9.96,0.01,0.0,0.01,0.0,0.0,0.0,6905,2019-03-25 16:02:23:147
-0.33,-0.12,9.96,0.01,0.0,0.01,0.0,0.0,0.0,6910,2019-03-25 16:02:23:152
-0.33,-0.12,9.96,0.01,0.0,0.01,0.0,0.0,0.0,6915,2019-03-25 16:02:23:157
-0.33,-0.1,9.93,0.0,0.02,-0.02,0.0,0.0,0.0,6919,2019-03-25 16:02:23:161
-0.33,-0.1,9.93,0.0,0.02,-0.02,0.0,0.0,0.0,6923,2019-03-25 16:02:23:165
-0.33,-0.1,9.93,0.0,0.02,-0.02,0.0,0.0,0.0,6930,2019-03-25 16:02:23:172
-0.33,-0.1,9.93,0.0,0.02,-0.02,0.0,0.0,0.0,6933,2019-03-25 16:02:23:175
-0.3,-0.12,9.94,0.02,0.0,-0.01,0.0,0.0,0.0,6939,2019-03-25 16:02:23:181
-0.3,-0.12,9.94,0.02,0.0,-0.01,0.0,0.0,0.0,6944,2019-03-25 16:02:23:186
-0.3,-0.12,9.94,0.02,0.0,-0.01,0.0,0.0,0.0,6949,2019-03-25 16:02:23:191
-0.34,-0.11,9.97,-0.01,0.0,0.01,0.0,0.0,0.0,6953,2019-03-25 16:02:23:195
-0.34,-0.11,9.97,-0.01,0.0,0.01,0.0,0.0,0.0,6960,2019-03-25 16:02:23:202
-0.34,-0.11,9.97,-0.01,0.0,0.01,0.0,0.0,0.0,6963,2019-03-25 16:02:23:205
-0.34,-0.11,9.97,-0.01,0.0,0.01,0.0,0.0,0.0,6968,2019-03-25 16:02:23:210
-0.34,-0.1,9.99,-0.01,0.0,0.01,0.0,0.0,0.0,6973,2019-03-25 16:02:23:215
-0.34,-0.1,9.99,0.0,0.01,0.03,0.0,0.0,0.0,6981,2019-03-25 16:02:23:223
-0.34,-0.1,9.99,0.0,0.01,0.03,0.0,0.0,0.0,6984,2019-03-25 16:02:23:226
-0.32,-0.12,9.93,0.0,0.01,0.03,0.0,0.0,0.0,6988,2019-03-25 16:02:23:230
-0.32,-0.12,9.93,0.0,0.01,0.03,0.0,0.0,0.0,6994,2019-03-25 16:02:23:236
-0.32,-0.12,9.93,0.0,0.01,0.03,0.0,0.0,0.0,6998,2019-03-25 16:02:23:240
-0.29,-0.13,9.91,0.0,0.01,0.03,0.0,0.0,0.0,7004,2019-03-25 16:02:23:246
-0.29,-0.13,9.91,0.03,-0.01,-0.04,0.0,0.0,0.0,7010,2019-03-25 16:02:23:252
-0.29,-0.13,9.91,0.03,-0.01,-0.04,0.0,0.0,0.0,7013,2019-03-25 16:02:23:255
-0.29,-0.13,9.91,0.03,-0.01,-0.04,0.0,0.0,0.0,7019,2019-03-25 16:02:23:261
-0.29,-0.13,9.91,0.03,-0.01,-0.04,0.0,0.0,0.0,7023,2019-03-25 16:02:23:265
-0.35,-0.1,9.97,-0.02,0.01,0.01,0.0,0.0,0.0,7028,2019-03-25 16:02:23:270
-0.35,-0.1,9.97,-0.02,0.01,0.01,0.0,0.0,0.0,7033,2019-03-25 16:02:23:275
-0.35,-0.1,9.97,-0.02,0.01,0.01,0.0,0.0,0.0,7038,2019-03-25 16:02:23:280
-0.35,-0.1,9.97,-0.02,0.01,0.01,0.0,0.0,0.0,7043,2019-03-25 16:02:23:285
-0.33,-0.1,10.0,0.0,0.0,0.03,0.0,0.0,0.0,7050,2019-03-25 16:02:23:292
-0.33,-0.1,10.0,0.0,0.0,0.03,0.0,0.0,0.0,7055,2019-03-25 16:02:23:297
-0.33,-0.1,10.0,0.0,0.0,0.03,0.0,0.0,0.0,7058,2019-03-25 16:02:23:300
-0.33,-0.1,10.0,0.0,0.0,0.03,0.0,0.0,0.0,7064,2019-03-25 16:02:23:306
-0.35,-0.13,9.92,-0.02,0.0,-0.03,0.0,0.0,0.0,7068,2019-03-25 16:02:23:310
-0.35,-0.13,9.92,-0.02,0.0,-0.03,0.0,0.0,0.0,7073,2019-03-25 16:02:23:315
-0.35,-0.13,9.92,-0.02,0.0,-0.03,0.0,0.0,0.0,7079,2019-03-25 16:02:23:321
-0.36,-0.14,9.95,-0.03,-0.02,0.0,0.0,0.0,0.0,7088,2019-03-25 16:02:23:330
-0.36,-0.14,9.95,-0.03,-0.02,0.0,0.0,0.0,0.0,7088,2019-03-25 16:02:23:330
-0.36,-0.14,9.95,-0.03,-0.02,0.0,0.0,0.0,0.0,7093,2019-03-25 16:02:23:335
-0.36,-0.14,9.95,-0.03,-0.02,0.0,0.0,0.0,0.0,7098,2019-03-25 16:02:23:340
-0.36,-0.14,9.95,-0.03,-0.02,0.0,0.0,0.0,0.0,7103,2019-03-25 16:02:23:345
-0.36,-0.14,9.95,-0.03,-0.02,0.0,0.0,0.0,0.0,7108,2019-03-25 16:02:23:350
-0.36,-0.14,9.95,-0.03,-0.02,0.0,0.0,0.0,0.0,7113,2019-03-25 16:02:23:355
-0.38,-0.08,9.95,-0.05,0.03,0.0,0.0,0.0,0.0,7122,2019-03-25 16:02:23:364
-0.38,-0.08,9.95,-0.05,0.03,0.0,0.0,0.0,0.0,7122,2019-03-25 16:02:23:364
-0.38,-0.08,9.95,-0.05,0.03,0.0,0.0,0.0,0.0,7128,2019-03-25 16:02:23:370
-0.38,-0.08,9.95,0.01,0.02,0.0,0.0,0.0,0.0,7133,2019-03-25 16:02:23:375
-0.38,-0.08,9.95,0.01,0.02,0.0,0.0,0.0,0.0,7138,2019-03-25 16:02:23:380
-0.38,-0.08,9.95,0.01,0.02,0.0,0.0,0.0,0.0,7143,2019-03-25 16:02:23:385
-0.38,-0.08,9.95,0.01,0.02,0.0,0.0,0.0,0.0,7148,2019-03-25 16:02:23:390
-0.34,-0.1,9.99,0.0,0.01,0.02,0.0,0.0,0.0,7153,2019-03-25 16:02:23:395
-0.34,-0.1,9.99,0.0,0.01,0.02,0.0,0.0,0.0,7160,2019-03-25 16:02:23:402
-0.34,-0.1,9.99,0.0,0.01,0.02,0.0,0.0,0.0,7164,2019-03-25 16:02:23:406
-0.36,-0.11,9.97,-0.02,0.0,0.01,0.0,0.0,0.0,7168,2019-03-25 16:02:23:410
-0.36,-0.11,9.97,-0.02,0.0,0.01,0.0,0.0,0.0,7173,2019-03-25 16:02:23:415
-0.36,-0.11,9.97,-0.02,0.0,0.01,0.0,0.0,0.0,7178,2019-03-25 16:02:23:420
-0.31,-0.09,9.95,-0.02,0.0,0.01,0.0,0.0,0.0,7183,2019-03-25 16:02:23:425
-0.31,-0.09,9.95,0.02,0.02,0.0,0.0,0.0,0.0,7189,2019-03-25 16:02:23:431
-0.31,-0.09,9.95,0.02,0.02,0.0,0.0,0.0,0.0,7192,2019-03-25 16:02:23:434
-0.31,-0.09,9.95,0.02,0.02,0.0,0.0,0.0,0.0,7199,2019-03-25 16:02:23:441
-0.31,-0.09,9.95,0.02,0.02,0.0,0.0,0.0,0.0,7205,2019-03-25 16:02:23:447
-0.31,-0.09,9.95,0.02,0.02,0.0,0.0,0.0,0.0,7208,2019-03-25 16:02:23:450
-0.31,-0.09,9.95,0.02,0.02,0.0,0.0,0.0,0.0,7213,2019-03-25 16:02:23:455
-0.32,-0.08,9.91,0.01,0.02,-0.04,0.0,0.0,0.0,7218,2019-03-25 16:02:23:460
-0.32,-0.08,9.91,0.01,0.02,-0.04,0.0,0.0,0.0,7223,2019-03-25 16:02:23:465
-0.32,-0.08,9.91,0.01,0.02,-0.04,0.0,0.0,0.0,7228,2019-03-25 16:02:23:470
-0.32,-0.08,9.91,0.01,0.02,-0.04,0.0,0.0,0.0,7233,2019-03-25 16:02:23:475
-0.32,-0.13,9.98,0.01,-0.02,0.03,0.0,0.0,0.0,7241,2019-03-25 16:02:23:483
-0.32,-0.13,9.98,0.01,-0.02,0.03,0.0,0.0,0.0,7244,2019-03-25 16:02:23:486
-0.32,-0.13,9.98,0.01,-0.02,0.03,0.0,0.0,0.0,7248,2019-03-25 16:02:23:490
-0.32,-0.13,9.98,0.01,-0.02,0.03,0.0,0.0,0.0,7253,2019-03-25 16:02:23:495
-0.3,-0.1,9.98,0.01,-0.02,0.03,0.0,0.0,0.0,7258,2019-03-25 16:02:23:500
-0.3,-0.1,9.98,0.0,0.0,0.0,0.0,0.0,0.0,7265,2019-03-25 16:02:23:507
-0.3,-0.1,9.98,0.0,0.0,0.0,0.0,0.0,0.0,7269,2019-03-25 16:02:23:511
-0.3,-0.1,9.98,0.0,0.0,0.0,0.0,0.0,0.0,7273,2019-03-25 16:02:23:515
-0.34,-0.13,9.94,0.0,-0.02,-0.01,0.0,0.0,0.0,7278,2019-03-25 16:02:23:520
-0.34,-0.13,9.94,0.0,-0.02,-0.01,0.0,0.0,0.0,7283,2019-03-25 16:02:23:525
-0.34,-0.13,9.94,0.0,-0.02,-0.01,0.0,0.0,0.0,7288,2019-03-25 16:02:23:530
-0.34,-0.13,9.94,0.0,-0.02,-0.01,0.0,0.0,0.0,7293,2019-03-25 16:02:23:535
-0.34,-0.13,9.94,0.0,-0.02,-0.01,0.0,0.0,0.0,7299,2019-03-25 16:02:23:541
-0.34,-0.13,9.94,0.0,-0.02,-0.01,0.0,0.0,0.0,7303,2019-03-25 16:02:23:545
-0.3,-0.08,9.99,0.03,0.02,0.03,0.0,0.0,0.0,7309,2019-03-25 16:02:23:551
-0.33,-0.11,9.94,0.0,0.0,-0.01,0.0,0.0,0.0,7313,2019-03-25 16:02:23:555
-0.33,-0.11,9.94,0.0,0.0,-0.01,0.0,0.0,0.0,7318,2019-03-25 16:02:23:560
-0.33,-0.11,9.94,0.0,0.0,-0.01,0.0,0.0,0.0,7323,2019-03-25 16:02:23:565
-0.33,-0.11,9.94,0.0,0.0,-0.01,0.0,0.0,0.0,7328,2019-03-25 16:02:23:570
-0.33,-0.11,9.94,0.0,0.0,-0.01,0.0,0.0,0.0,7333,2019-03-25 16:02:23:575
-0.35,-0.11,9.93,-0.01,0.0,-0.02,0.0,0.0,0.0,7338,2019-03-25 16:02:23:580
-0.35,-0.11,9.93,-0.01,0.0,-0.02,0.0,0.0,0.0,7345,2019-03-25 16:02:23:587
-0.35,-0.11,9.93,-0.01,0.0,-0.02,0.0,0.0,0.0,7349,2019-03-25 16:02:23:591
-0.34,-0.1,9.98,-0.01,0.01,0.02,0.0,0.0,0.0,7354,2019-03-25 16:02:23:596
-0.34,-0.1,9.98,-0.01,0.01,0.02,0.0,0.0,0.0,7358,2019-03-25 16:02:23:600
-0.34,-0.1,9.98,-0.01,0.01,0.02,0.0,0.0,0.0,7363,2019-03-25 16:02:23:605
-0.34,-0.1,9.98,-0.01,0.01,0.02,0.0,0.0,0.0,7369,2019-03-25 16:02:23:611
-0.34,-0.1,9.98,-0.01,0.01,0.02,0.0,0.0,0.0,7374,2019-03-25 16:02:23:616
-0.34,-0.1,9.98,-0.01,0.01,0.02,0.0,0.0,0.0,7380,2019-03-25 16:02:23:622
-0.34,-0.1,9.98,-0.01,0.01,0.02,0.0,0.0,0.0,7383,2019-03-25 16:02:23:625
-0.35,-0.13,9.98,-0.01,-0.02,0.02,0.0,0.0,0.0,7389,2019-03-25 16:02:23:631
-0.35,-0.13,9.98,-0.01,-0.02,0.02,0.0,0.0,0.0,7396,2019-03-25 16:02:23:638
-0.35,-0.11,9.95,0.0,0.0,-0.01,0.0,0.0,0.0,7398,2019-03-25 16:02:23:640
-0.33,-0.11,9.95,0.0,0.0,-0.01,0.0,0.0,0.0,7404,2019-03-25 16:02:23:646
-0.33,-0.11,9.95,0.0,0.0,-0.01,0.0,0.0,0.0,7410,2019-03-25 16:02:23:652
-0.33,-0.11,9.95,0.0,0.0,-0.01,0.0,0.0,0.0,7413,2019-03-25 16:02:23:655
-0.38,-0.1,9.97,-0.04,0.01,0.0,0.0,0.0,0.0,7417,2019-03-25 16:02:23:659
-0.38,-0.1,9.97,-0.04,0.01,0.0,0.0,0.0,0.0,7424,2019-03-25 16:02:23:666
-0.38,-0.1,9.97,-0.04,0.01,0.0,0.0,0.0,0.0,7428,2019-03-25 16:02:23:670
-0.32,-0.11,9.97,0.01,0.0,0.0,0.0,0.0,0.0,7435,2019-03-25 16:02:23:677
-0.32,-0.11,9.97,0.01,0.0,0.0,0.0,0.0,0.0,7438,2019-03-25 16:02:23:680
-0.32,-0.11,9.97,0.01,0.0,0.0,0.0,0.0,0.0,7447,2019-03-25 16:02:23:689
-0.32,-0.11,9.97,0.01,0.0,0.0,0.0,0.0,0.0,7448,2019-03-25 16:02:23:690
-0.32,-0.11,9.97,0.01,0.0,0.0,0.0,0.0,0.0,7454,2019-03-25 16:02:23:696
-0.32,-0.11,9.97,0.01,0.0,0.0,0.0,0.0,0.0,7460,2019-03-25 16:02:23:702
-0.32,-0.11,9.97,0.01,0.0,0.0,0.0,0.0,0.0,7464,2019-03-25 16:02:23:706
-0.32,-0.11,9.97,0.01,0.0,0.0,0.0,0.0,0.0,7468,2019-03-25 16:02:23:710
-0.31,-0.12,9.96,0.02,0.0,0.0,0.0,0.0,0.0,7475,2019-03-25 16:02:23:717
-0.31,-0.12,9.96,0.02,0.0,0.0,0.0,0.0,0.0,7481,2019-03-25 16:02:23:723
-0.31,-0.12,9.96,0.02,0.0,0.0,0.0,0.0,0.0,7483,2019-03-25 16:02:23:725
-0.36,-0.16,9.97,-0.03,-0.04,0.0,0.0,0.0,0.0,7489,2019-03-25 16:02:23:731
-0.36,-0.16,9.97,-0.03,-0.04,0.0,0.0,0.0,0.0,7494,2019-03-25 16:02:23:736
-0.36,-0.16,9.97,-0.03,-0.04,0.0,0.0,0.0,0.0,7499,2019-03-25 16:02:23:741
-0.36,-0.16,9.97,-0.03,-0.04,0.0,0.0,0.0,0.0,7503,2019-03-25 16:02:23:745
-0.34,-0.15,9.96,0.0,-0.02,0.0,0.0,0.0,0.0,7508,2019-03-25 16:02:23:750
-0.34,-0.15,9.96,0.0,-0.02,0.0,0.0,0.0,0.0,7514,2019-03-25 16:02:23:756
-0.34,-0.15,9.96,0.0,-0.02,0.0,0.0,0.0,0.0,7518,2019-03-25 16:02:23:760
-0.32,-0.08,9.92,0.0,0.03,-0.04,0.0,0.0,0.0,7523,2019-03-25 16:02:23:765
-0.32,-0.08,9.92,0.0,0.03,-0.04,0.0,0.0,0.0,7528,2019-03-25 16:02:23:770
-0.32,-0.08,9.92,0.0,0.03,-0.04,0.0,0.0,0.0,7533,2019-03-25 16:02:23:775
-0.34,-0.09,9.94,-0.01,0.03,-0.02,0.0,0.0,0.0,7537,2019-03-25 16:02:23:779
-0.34,-0.09,9.94,-0.01,0.03,-0.02,0.0,0.0,0.0,7545,2019-03-25 16:02:23:787
-0.34,-0.09,9.94,-0.01,0.03,-0.02,0.0,0.0,0.0,7547,2019-03-25 16:02:23:789
-0.34,-0.09,9.94,-0.01,0.03,-0.02,0.0,0.0,0.0,7553,2019-03-25 16:02:23:795
-0.34,-0.09,9.94,-0.01,0.03,-0.02,0.0,0.0,0.0,7558,2019-03-25 16:02:23:800
-0.34,-0.09,9.94,-0.01,0.03,-0.02,0.0,0.0,0.0,7564,2019-03-25 16:02:23:806
-0.34,-0.09,9.94,-0.01,0.03,-0.02,0.0,0.0,0.0,7568,2019-03-25 16:02:23:810
-0.32,-0.13,9.96,0.0,0.0,0.0,0.0,0.0,0.0,7573,2019-03-25 16:02:23:815
-0.32,-0.13,9.96,0.0,0.0,0.0,0.0,0.0,0.0,7578,2019-03-25 16:02:23:820
-0.31,-0.09,9.96,0.02,0.02,0.0,0.0,0.0,0.0,7584,2019-03-25 16:02:23:826
-0.31,-0.09,9.96,0.02,0.02,0.0,0.0,0.0,0.0,7588,2019-03-25 16:02:23:830
-0.31,-0.09,9.96,0.02,0.02,0.0,0.0,0.0,0.0,7594,2019-03-25 16:02:23:836
-0.31,-0.09,9.96,0.02,0.02,0.0,0.0,0.0,0.0,7602,2019-03-25 16:02:23:844
-0.31,-0.09,9.96,0.02,0.02,0.0,0.0,0.0,0.0,7603,2019-03-25 16:02:23:845
-0.31,-0.09,9.99,0.02,0.02,0.02,0.0,0.0,0.0,7609,2019-03-25 16:02:23:851
-0.31,-0.09,9.99,0.02,0.02,0.02,0.0,0.0,0.0,7613,2019-03-25 16:02:23:855
-0.36,-0.14,10.0,-0.03,-0.02,0.04,0.0,0.0,0.0,7618,2019-03-25 16:02:23:860
-0.36,-0.14,10.0,-0.03,-0.02,0.04,0.0,0.0,0.0,7623,2019-03-25 16:02:23:865
-0.36,-0.14,10.0,-0.03,-0.02,0.04,0.0,0.0,0.0,7630,2019-03-25 16:02:23:872
-0.36,-0.14,10.0,-0.03,-0.02,0.04,0.0,0.0,0.0,7633,2019-03-25 16:02:23:875
-0.34,-0.12,9.95,-0.01,0.0,-0.01,0.0,0.0,0.0,7639,2019-03-25 16:02:23:881
-0.34,-0.12,9.95,-0.01,0.0,-0.01,0.0,0.0,0.0,7643,2019-03-25 16:02:23:885
-0.34,-0.12,9.95,-0.01,0.0,-0.01,0.0,0.0,0.0,7651,2019-03-25 16:02:23:893
-0.34,-0.12,9.95,-0.01,0.0,-0.01,0.0,0.0,0.0,7653,2019-03-25 16:02:23:895
-0.34,-0.12,9.95,-0.01,0.0,-0.01,0.0,0.0,0.0,7658,2019-03-25 16:02:23:900
-0.34,-0.12,9.95,-0.01,0.0,-0.01,0.0,0.0,0.0,7663,2019-03-25 16:02:23:905
-0.34,-0.12,9.96,0.0,0.0,0.0,0.0,0.0,0.0,7668,2019-03-25 16:02:23:910
-0.34,-0.12,9.96,0.0,0.0,0.0,0.0,0.0,0.0,7673,2019-03-25 16:02:23:915
-0.34,-0.12,9.96,0.0,0.0,0.0,0.0,0.0,0.0,7679,2019-03-25 16:02:23:921
-0.34,-0.12,9.96,-0.02,0.0,-0.02,0.0,0.0,0.0,7684,2019-03-25 16:02:23:926
-0.34,-0.12,9.96,-0.02,0.0,-0.02,0.0,0.0,0.0,7688,2019-03-25 16:02:23:930
-0.34,-0.12,9.96,-0.02,0.0,-0.02,0.0,0.0,0.0,7693,2019-03-25 16:02:23:935
-0.34,-0.12,9.96,-0.02,0.0,-0.02,0.0,0.0,0.0,7700,2019-03-25 16:02:23:942
-0.37,-0.12,9.99,-0.04,-0.01,0.03,0.0,0.0,0.0,7707,2019-03-25 16:02:23:949
-0.37,-0.12,9.99,-0.04,-0.01,0.03,0.0,0.0,0.0,7710,2019-03-25 16:02:23:952
-0.37,-0.12,9.99,-0.04,-0.01,0.03,0.0,0.0,0.0,7713,2019-03-25 16:02:23:955
-0.32,-0.1,10.0,0.01,0.01,0.03,0.0,0.0,0.0,7719,2019-03-25 16:02:23:961
-0.32,-0.1,10.0,0.01,0.01,0.03,0.0,0.0,0.0,7729,2019-03-25 16:02:23:971
-0.32,-0.1,10.0,0.01,0.01,0.03,0.0,0.0,0.0,7732,2019-03-25 16:02:23:974
-0.32,-0.1,10.0,0.01,0.01,0.03,0.0,0.0,0.0,7733,2019-03-25 16:02:23:975
-0.32,-0.1,10.0,0.01,0.01,0.03,0.0,0.0,0.0,7738,2019-03-25 16:02:23:980
-0.32,-0.1,10.0,0.01,0.01,0.03,0.0,0.0,0.0,7744,2019-03-25 16:02:23:986
-0.32,-0.1,10.0,0.01,0.01,0.03,0.0,0.0,0.0,7749,2019-03-25 16:02:23:991
-0.31,-0.14,9.96,0.01,-0.02,0.0,0.0,0.0,0.0,7753,2019-03-25 16:02:23:995
-0.31,-0.14,9.96,0.01,-0.02,0.0,0.0,0.0,0.0,7759,2019-03-25 16:02:24:001
-0.31,-0.14,9.96,0.01,-0.02,0.0,0.0,0.0,0.0,7764,2019-03-25 16:02:24:006
-0.31,-0.14,9.96,0.01,-0.02,0.0,0.0,0.0,0.0,7769,2019-03-25 16:02:24:011
-0.31,-0.14,9.96,0.01,-0.02,0.0,0.0,0.0,0.0,7773,2019-03-25 16:02:24:015
-0.31,-0.14,9.96,0.01,-0.02,0.0,0.0,0.0,0.0,7777,2019-03-25 16:02:24:019
-0.31,-0.14,9.96,0.01,-0.02,0.0,0.0,0.0,0.0,7783,2019-03-25 16:02:24:025
-0.34,-0.12,9.9,-0.01,0.0,-0.06,0.0,0.0,0.0,7788,2019-03-25 16:02:24:030
-0.34,-0.12,9.9,-0.01,0.0,-0.06,0.0,0.0,0.0,7794,2019-03-25 16:02:24:036
-0.34,-0.12,9.9,-0.01,0.0,-0.06,0.0,0.0,0.0,7798,2019-03-25 16:02:24:040
-0.34,-0.12,9.99,-0.01,0.0,0.01,0.0,0.0,0.0,7803,2019-03-25 16:02:24:045
-0.34,-0.12,9.99,-0.01,0.0,0.01,0.0,0.0,0.0,7809,2019-03-25 16:02:24:051
-0.34,-0.12,9.99,-0.01,0.0,0.01,0.0,0.0,0.0,7813,2019-03-25 16:02:24:055
-0.36,-0.11,9.91,-0.02,0.0,-0.05,0.0,0.0,0.0,7821,2019-03-25 16:02:24:063
-0.36,-0.11,9.91,-0.02,0.0,-0.05,0.0,0.0,0.0,7823,2019-03-25 16:02:24:065
-0.36,-0.11,9.91,-0.02,0.0,-0.05,0.0,0.0,0.0,7828,2019-03-25 16:02:24:070
-0.3,-0.09,9.92,0.02,0.01,-0.04,0.0,0.0,0.0,7834,2019-03-25 16:02:24:076
-0.3,-0.09,9.92,0.02,0.01,-0.04,0.0,0.0,0.0,7838,2019-03-25 16:02:24:080
-0.3,-0.09,9.92,0.02,0.01,-0.04,0.0,0.0,0.0,7843,2019-03-25 16:02:24:085
-0.3,-0.09,9.92,0.02,0.01,-0.04,0.0,0.0,0.0,7848,2019-03-25 16:02:24:090
-0.3,-0.09,9.92,0.02,0.01,-0.04,0.0,0.0,0.0,7853,2019-03-25 16:02:24:095
-0.33,-0.13,9.98,0.0,-0.02,0.02,0.0,0.0,0.0,7859,2019-03-25 16:02:24:101
-0.33,-0.13,9.98,0.0,-0.02,0.02,0.0,0.0,0.0,7862,2019-03-25 16:02:24:104
-0.33,-0.13,9.98,0.0,-0.02,0.02,0.0,0.0,0.0,7868,2019-03-25 16:02:24:110
-0.33,-0.11,9.98,0.0,0.0,0.01,0.0,0.0,0.0,7873,2019-03-25 16:02:24:115
-0.33,-0.11,9.98,0.0,0.0,0.01,0.0,0.0,0.0,7877,2019-03-25 16:02:24:119
-0.33,-0.11,9.98,0.0,0.0,0.01,0.0,0.0,0.0,7883,2019-03-25 16:02:24:125
-0.33,-0.11,9.98,0.0,0.0,0.01,0.0,0.0,0.0,7888,2019-03-25 16:02:24:130
-0.33,-0.11,9.98,0.0,0.0,0.01,0.0,0.0,0.0,7893,2019-03-25 16:02:24:135
-0.33,-0.14,9.95,0.03,-0.02,-0.01,0.0,0.0,0.0,7899,2019-03-25 16:02:24:141
-0.3,-0.14,9.95,0.03,-0.02,-0.01,0.0,0.0,0.0,7906,2019-03-25 16:02:24:148
-0.3,-0.14,9.95,0.03,-0.02,-0.01,0.0,0.0,0.0,7910,2019-03-25 16:02:24:152
-0.3,-0.14,9.95,0.03,-0.02,-0.01,0.0,0.0,0.0,7913,2019-03-25 16:02:24:155
-0.32,-0.08,9.97,0.0,0.03,0.01,0.0,0.0,0.0,7918,2019-03-25 16:02:24:160
-0.32,-0.08,9.97,0.0,0.03,0.01,0.0,0.0,0.0,7923,2019-03-25 16:02:24:165
-0.32,-0.08,9.97,0.0,0.03,0.01,0.0,0.0,0.0,7929,2019-03-25 16:02:24:171
-0.32,-0.08,9.97,0.0,0.03,0.01,0.0,0.0,0.0,7933,2019-03-25 16:02:24:175
-0.35,-0.13,9.96,-0.01,-0.01,0.0,0.0,0.0,0.0,7939,2019-03-25 16:02:24:181
-0.35,-0.13,9.96,-0.01,-0.01,0.0,0.0,0.0,0.0,7944,2019-03-25 16:02:24:186
-0.35,-0.13,9.96,-0.01,-0.01,0.0,0.0,0.0,0.0,7948,2019-03-25 16:02:24:190
-0.35,-0.13,9.96,-0.01,-0.01,0.0,0.0,0.0,0.0,7953,2019-03-25 16:02:24:195
-0.35,-0.11,9.94,-0.02,0.0,-0.01,0.0,0.0,0.0,7960,2019-03-25 16:02:24:202
-0.35,-0.11,9.94,-0.02,0.0,-0.01,0.0,0.0,0.0,7962,2019-03-25 16:02:24:204
-0.35,-0.11,9.94,-0.02,0.0,-0.01,0.0,0.0,0.0,7969,2019-03-25 16:02:24:211
-0.35,-0.11,9.94,-0.02,0.0,-0.01,0.0,0.0,0.0,7975,2019-03-25 16:02:24:217
-0.35,-0.11,9.94,-0.02,0.0,-0.01,0.0,0.0,0.0,7978,2019-03-25 16:02:24:220
-0.35,-0.11,9.94,-0.02,0.0,-0.01,0.0,0.0,0.0,7985,2019-03-25 16:02:24:227
-0.35,-0.11,9.94,-0.02,0.0,-0.01,0.0,0.0,0.0,7988,2019-03-25 16:02:24:230
-0.35,-0.11,9.94,-0.02,0.0,-0.01,0.0,0.0,0.0,7993,2019-03-25 16:02:24:235
-0.35,-0.11,9.94,-0.02,0.0,-0.01,0.0,0.0,0.0,8000,2019-03-25 16:02:24:242
-0.35,-0.11,9.94,-0.02,0.0,-0.01,0.0,0.0,0.0,8003,2019-03-25 16:02:24:245
-0.34,-0.09,9.93,0.0,0.01,-0.02,0.0,0.0,0.0,8008,2019-03-25 16:02:24:250
-0.34,-0.09,9.93,0.0,0.01,-0.02,0.0,0.0,0.0,8014,2019-03-25 16:02:24:256
-0.35,-0.09,9.92,0.0,0.01,-0.02,0.0,0.0,0.0,8017,2019-03-25 16:02:24:259
-0.35,-0.09,9.92,-0.05,-0.01,0.02,0.0,0.0,0.0,8023,2019-03-25 16:02:24:265
-0.35,-0.09,9.92,-0.05,-0.01,0.02,0.0,0.0,0.0,8028,2019-03-25 16:02:24:270
-0.33,-0.13,9.94,0.0,-0.01,-0.01,0.0,0.0,0.0,8034,2019-03-25 16:02:24:276
-0.33,-0.13,9.94,0.0,-0.01,-0.01,0.0,0.0,0.0,8039,2019-03-25 16:02:24:281
