ACCELEROMETER X (m/s²),ACCELEROMETER Y (m/s²),ACCELEROMETER Z (m/s²),LINEAR ACCELERATION X (m/s²),LINEAR ACCELERATION Y (m/s²),LINEAR ACCELERATION Z (m/s²),GYROSCOPE X (rad/s),GYROSCOPE Y (rad/s),GYROSCOPE Z (rad/s),Time since start in ms ,YYYY-MO-DD HH-MI-SS_SSS
0.55,0.62,9.84,-0.03,-0.01,-0.01,0.0,0.0,0.0,7,2019-04-03 15:55:04:763
0.55,0.62,9.84,-0.03,-0.01,-0.01,0.0,0.0,0.0,12,2019-04-03 15:55:04:768
0.55,0.62,9.84,-0.03,-0.01,-0.01,0.0,0.0,0.0,17,2019-04-03 15:55:04:773
0.58,0.62,9.86,0.0,-0.01,0.0,0.0,0.0,0.0,22,2019-04-03 15:55:04:778
0.58,0.62,9.86,0.0,-0.01,0.0,0.0,0.0,0.0,27,2019-04-03 15:55:04:783
0.58,0.62,9.86,0.0,-0.01,0.0,0.0,0.0,0.0,32,2019-04-03 15:55:04:788
0.58,0.62,9.86,0.0,-0.01,0.0,0.0,0.0,0.0,37,2019-04-03 15:55:04:793
0.58,0.62,9.86,0.0,-0.01,0.0,0.0,0.0,0.0,42,2019-04-03 15:55:04:798
0.58,0.62,9.86,0.0,-0.01,0.0,0.0,0.0,0.0,47,2019-04-03 15:55:04:803
0.57,0.6,9.85,0.0,-0.01,0.0,0.0,0.0,0.0,52,2019-04-03 15:55:04:808
0.57,0.6,9.85,-0.01,-0.03,0.0,0.0,0.0,0.0,57,2019-04-03 15:55:04:813
0.61,0.62,9.87,-0.01,-0.03,0.0,0.0,0.0,0.0,62,2019-04-03 15:55:04:818
0.61,0.62,9.87,-0.01,-0.03,0.0,0.0,0.0,0.0,67,2019-04-03 15:55:04:823
0.61,0.62,9.87,-0.01,-0.03,0.0,0.0,0.0,0.0,72,2019-04-03 15:55:04:828
0.61,0.62,9.87,-0.01,-0.03,0.0,0.0,0.0,0.0,78,2019-04-03 15:55:04:834
0.58,0.62,9.84,0.0,0.0,-0.01,0.0,0.0,0.0,82,2019-04-03 15:55:04:838
0.58,0.62,9.84,0.0,0.0,-0.01,0.0,0.0,0.0,87,2019-04-03 15:55:04:843
0.58,0.62,9.84,0.0,0.0,-0.01,0.0,0.0,0.0,92,2019-04-03 15:55:04:848
0.58,0.62,9.84,0.0,0.0,-0.01,0.0,0.0,0.0,98,2019-04-03 15:55:04:854
0.57,0.61,9.89,-0.01,-0.01,0.03,0.0,0.0,0.0,102,2019-04-03 15:55:04:858
0.57,0.61,9.89,-0.01,-0.01,0.03,0.0,0.0,0.0,107,2019-04-03 15:55:04:863
0.57,0.61,9.89,-0.01,-0.01,0.03,0.0,0.0,0.0,112,2019-04-03 15:55:04:868
0.57,0.61,9.89,-0.01,-0.01,0.03,0.0,0.0,0.0,117,2019-04-03 15:55:04:873
0.57,0.61,9.89,-0.01,-0.01,0.03,0.0,0.0,0.0,122,2019-04-03 15:55:04:878
0.57,0.61,9.89,-0.01,-0.01,0.03,0.0,0.0,0.0,127,2019-04-03 15:55:04:883
0.51,0.61,9.86,-0.06,-0.01,0.0,0.0,0.0,0.0,132,2019-04-03 15:55:04:888
0.51,0.61,9.86,-0.06,-0.01,0.0,0.0,0.0,0.0,137,2019-04-03 15:55:04:893
0.51,0.61,9.86,-0.06,-0.01,0.0,0.0,0.0,0.0,142,2019-04-03 15:55:04:898
0.51,0.61,9.86,-0.06,-0.01,0.0,0.0,0.0,0.0,146,2019-04-03 15:55:04:902
0.51,0.61,9.86,-0.06,-0.01,0.0,0.0,0.0,0.0,152,2019-04-03 15:55:04:908
0.51,0.61,9.86,-0.06,-0.01,0.0,0.0,0.0,0.0,157,2019-04-03 15:55:04:913
0.51,0.61,9.86,-0.06,-0.01,0.0,0.0,0.0,0.0,162,2019-04-03 15:55:04:918
0.57,0.63,9.82,0.01,0.01,-0.03,0.0,0.0,0.0,167,2019-04-03 15:55:04:923
0.57,0.63,9.82,0.01,0.01,-0.03,0.0,0.0,0.0,172,2019-04-03 15:55:04:928
0.57,0.63,9.82,0.01,0.01,-0.03,0.0,0.0,0.0,177,2019-04-03 15:55:04:933
0.56,0.55,9.89,0.01,0.01,-0.03,0.0,0.0,0.0,182,2019-04-03 15:55:04:938
0.56,0.55,9.89,0.0,-0.06,0.03,0.0,0.0,0.0,188,2019-04-03 15:55:04:944
0.56,0.55,9.89,0.0,-0.06,0.03,0.0,0.0,0.0,192,2019-04-03 15:55:04:948
0.56,0.55,9.89,0.0,-0.06,0.03,0.0,0.0,0.0,197,2019-04-03 15:55:04:953
0.41,0.58,9.8,-0.13,-0.02,-0.06,0.0,0.0,-0.01,203,2019-04-03 15:55:04:959
0.41,0.58,9.8,-0.13,-0.02,-0.06,0.0,0.0,-0.01,207,2019-04-03 15:55:04:963
0.41,0.58,9.8,-0.13,-0.02,-0.06,0.0,0.0,-0.01,212,2019-04-03 15:55:04:968
0.41,0.58,9.8,-0.13,-0.02,-0.06,0.0,0.0,-0.01,217,2019-04-03 15:55:04:973
0.87,0.4,9.49,0.31,-0.18,-0.31,0.0,0.0,-0.01,222,2019-04-03 15:55:04:978
0.87,0.4,9.49,0.31,-0.18,-0.31,0.0,0.0,-0.01,229,2019-04-03 15:55:04:985
0.87,0.4,9.49,0.31,-0.18,-0.31,0.0,0.0,-0.01,232,2019-04-03 15:55:04:988
0.87,0.4,9.49,0.31,-0.18,-0.31,0.0,0.0,-0.01,237,2019-04-03 15:55:04:993
0.46,0.54,9.78,-0.08,-0.04,-0.01,0.0,0.0,-0.01,242,2019-04-03 15:55:04:998
0.46,0.54,9.78,-0.08,-0.04,-0.01,0.0,0.0,-0.01,247,2019-04-03 15:55:05:003
0.46,0.54,9.78,-0.08,-0.04,-0.01,0.0,0.0,-0.01,253,2019-04-03 15:55:05:009
0.46,0.54,9.78,-0.08,-0.04,-0.01,0.0,0.0,-0.01,257,2019-04-03 15:55:05:013
0.46,0.54,9.78,-0.08,-0.04,-0.01,0.0,0.0,-0.01,262,2019-04-03 15:55:05:018
0.23,0.4,10.07,-0.31,-0.12,0.24,-0.02,0.0,-0.01,267,2019-04-03 15:55:05:023
0.23,0.4,10.07,-0.31,-0.12,0.24,-0.02,0.0,-0.01,272,2019-04-03 15:55:05:028
0.23,0.4,10.07,-0.31,-0.12,0.24,-0.02,0.0,-0.01,278,2019-04-03 15:55:05:034
0.74,0.14,10.62,0.17,-0.4,0.75,0.03,-0.01,-0.02,283,2019-04-03 15:55:05:039
0.74,0.14,10.62,0.17,-0.4,0.75,0.03,-0.01,-0.02,287,2019-04-03 15:55:05:043
0.74,0.14,10.62,0.17,-0.4,0.75,0.03,-0.01,-0.02,291,2019-04-03 15:55:05:047
0.74,0.14,10.62,0.17,-0.4,0.75,0.03,-0.01,-0.02,297,2019-04-03 15:55:05:053
1.15,1.15,9.87,0.17,-0.4,0.75,0.01,0.02,-0.01,302,2019-04-03 15:55:05:058
1.15,1.15,9.87,0.59,0.58,0.0,0.01,0.02,-0.01,307,2019-04-03 15:55:05:063
1.15,1.15,9.87,0.59,0.58,0.0,0.01,0.02,-0.01,312,2019-04-03 15:55:05:068
1.15,1.15,9.87,0.59,0.58,0.0,0.01,0.02,-0.01,317,2019-04-03 15:55:05:073
-0.1,0.66,9.72,-0.63,0.13,-0.17,-0.06,0.02,-0.01,322,2019-04-03 15:55:05:078
-0.1,0.66,9.72,-0.63,0.13,-0.17,-0.06,0.02,-0.01,327,2019-04-03 15:55:05:083
-0.1,0.66,9.72,-0.63,0.13,-0.17,-0.06,0.02,-0.01,332,2019-04-03 15:55:05:088
-0.1,0.66,9.72,-0.63,0.13,-0.17,-0.06,0.02,-0.01,337,2019-04-03 15:55:05:093
0.53,0.62,9.84,-0.03,0.04,-0.07,0.03,-0.05,-0.04,342,2019-04-03 15:55:05:098
0.53,0.62,9.84,-0.03,0.04,-0.07,0.03,-0.05,-0.04,347,2019-04-03 15:55:05:103
0.53,0.62,9.84,-0.03,0.04,-0.07,0.03,-0.05,-0.04,352,2019-04-03 15:55:05:108
0.53,0.62,9.84,-0.03,0.04,-0.07,0.03,-0.05,-0.04,357,2019-04-03 15:55:05:113
0.53,0.62,9.84,-0.03,0.04,-0.07,0.03,-0.05,-0.04,363,2019-04-03 15:55:05:119
0.61,1.15,9.76,0.03,0.55,-0.13,0.0,0.0,-0.01,367,2019-04-03 15:55:05:123
0.61,1.15,9.76,0.03,0.55,-0.13,0.0,0.0,-0.01,372,2019-04-03 15:55:05:128
0.61,1.15,9.76,0.03,0.55,-0.13,0.0,0.0,-0.01,378,2019-04-03 15:55:05:134
0.61,1.15,9.76,0.03,0.55,-0.13,0.0,0.0,-0.01,382,2019-04-03 15:55:05:138
0.61,1.15,9.76,0.03,0.55,-0.13,0.0,0.0,-0.01,387,2019-04-03 15:55:05:143
0.71,0.48,10.1,0.03,0.55,-0.13,-0.02,0.0,0.0,392,2019-04-03 15:55:05:148
0.71,0.48,10.1,0.12,-0.11,0.18,-0.02,0.0,0.0,397,2019-04-03 15:55:05:153
0.71,0.48,10.1,0.12,-0.11,0.18,0.02,0.0,0.0,402,2019-04-03 15:55:05:158
0.71,0.48,10.1,0.12,-0.11,0.18,0.02,0.0,0.0,408,2019-04-03 15:55:05:164
0.71,0.48,10.1,0.12,-0.11,0.18,0.02,0.0,0.0,412,2019-04-03 15:55:05:168
0.71,0.48,10.1,0.12,-0.11,0.18,0.02,0.0,0.0,417,2019-04-03 15:55:05:173
0.54,0.95,9.47,-0.04,0.31,-0.49,0.0,0.0,0.0,422,2019-04-03 15:55:05:178
0.54,0.95,9.47,-0.04,0.31,-0.49,0.0,0.0,0.0,427,2019-04-03 15:55:05:183
0.54,0.95,9.47,-0.04,0.31,-0.49,0.0,0.0,0.0,432,2019-04-03 15:55:05:188
0.54,0.95,9.47,-0.04,0.31,-0.49,0.0,0.0,0.0,437,2019-04-03 15:55:05:193
0.77,0.42,10.15,0.16,-0.2,0.14,-0.01,0.0,0.0,442,2019-04-03 15:55:05:198
0.77,0.42,10.15,0.16,-0.2,0.14,-0.01,0.0,0.0,447,2019-04-03 15:55:05:203
0.77,0.42,10.15,0.16,-0.2,0.14,-0.01,0.0,0.0,451,2019-04-03 15:55:05:207
0.77,0.42,10.15,0.16,-0.2,0.14,-0.01,0.0,0.0,457,2019-04-03 15:55:05:213
0.77,0.42,10.15,0.16,-0.2,0.14,-0.01,0.0,0.0,462,2019-04-03 15:55:05:218
0.77,0.42,10.15,0.16,-0.2,0.14,-0.01,0.0,0.0,468,2019-04-03 15:55:05:224
0.61,0.52,9.79,0.0,-0.16,-0.16,0.01,0.01,0.0,472,2019-04-03 15:55:05:228
0.61,0.52,9.79,0.0,-0.16,-0.16,0.01,0.01,0.0,477,2019-04-03 15:55:05:233
0.61,0.52,9.79,0.0,-0.16,-0.16,0.01,0.01,0.0,482,2019-04-03 15:55:05:238
0.61,0.52,9.79,0.0,-0.16,-0.16,0.01,0.01,0.0,487,2019-04-03 15:55:05:243
0.56,0.96,9.65,-0.02,0.27,-0.25,-0.01,0.0,0.0,492,2019-04-03 15:55:05:248
0.56,0.96,9.65,-0.02,0.27,-0.25,-0.01,0.0,0.0,497,2019-04-03 15:55:05:253
0.56,0.96,9.65,-0.02,0.27,-0.25,0.0,0.0,0.0,501,2019-04-03 15:55:05:257
0.56,0.96,9.65,0.09,0.22,-0.16,0.0,0.0,0.0,509,2019-04-03 15:55:05:265
0.56,0.96,9.65,0.09,0.22,-0.16,0.0,0.0,0.0,512,2019-04-03 15:55:05:268
0.56,0.96,9.65,0.09,0.22,-0.16,0.0,0.0,0.0,517,2019-04-03 15:55:05:273
0.34,0.78,9.67,-0.29,0.07,-0.18,0.02,0.0,0.0,522,2019-04-03 15:55:05:278
0.34,0.78,9.67,-0.29,0.07,-0.18,0.02,0.0,0.0,527,2019-04-03 15:55:05:283
0.34,0.78,9.67,-0.29,0.07,-0.18,0.02,0.0,0.0,532,2019-04-03 15:55:05:288
0.34,0.78,9.67,-0.29,0.07,-0.18,0.02,0.0,0.0,537,2019-04-03 15:55:05:293
0.38,0.74,9.82,-0.2,0.06,-0.01,-0.01,0.0,0.0,542,2019-04-03 15:55:05:298
0.38,0.74,9.82,-0.2,0.06,-0.01,-0.01,0.0,0.0,547,2019-04-03 15:55:05:303
0.38,0.74,9.82,-0.2,0.06,-0.01,-0.01,0.0,0.0,552,2019-04-03 15:55:05:308
0.38,0.74,9.82,-0.2,0.06,-0.01,-0.01,0.0,0.0,557,2019-04-03 15:55:05:313
0.38,0.74,9.82,-0.2,0.06,-0.01,-0.01,0.0,0.0,562,2019-04-03 15:55:05:318
0.5,0.43,9.95,-0.06,-0.21,0.1,0.0,0.0,0.0,567,2019-04-03 15:55:05:323
0.5,0.43,9.95,-0.06,-0.21,0.1,0.0,0.0,0.0,572,2019-04-03 15:55:05:328
0.5,0.43,9.95,-0.06,-0.21,0.1,0.0,0.0,0.0,577,2019-04-03 15:55:05:333
0.5,0.43,9.95,-0.06,-0.21,0.1,0.0,0.0,0.0,582,2019-04-03 15:55:05:338
0.5,0.43,9.95,-0.06,-0.21,0.1,0.0,0.0,0.0,588,2019-04-03 15:55:05:344
0.5,0.52,9.8,-0.06,-0.21,0.1,0.0,0.0,0.0,592,2019-04-03 15:55:05:348
0.5,0.52,9.8,-0.05,-0.14,-0.02,0.0,0.0,0.0,597,2019-04-03 15:55:05:353
0.5,0.52,9.8,-0.05,-0.14,-0.02,0.0,0.0,0.0,601,2019-04-03 15:55:05:357
0.5,0.52,9.8,-0.05,-0.14,-0.02,0.0,0.0,0.0,607,2019-04-03 15:55:05:363
0.5,0.52,9.8,-0.05,-0.14,-0.02,0.0,0.0,0.0,612,2019-04-03 15:55:05:368
0.57,0.54,9.87,-0.05,-0.14,-0.02,0.0,0.0,0.0,620,2019-04-03 15:55:05:376
0.57,0.54,9.87,0.0,-0.09,0.02,0.0,0.0,0.0,622,2019-04-03 15:55:05:378
0.57,0.54,9.87,0.0,-0.09,0.02,0.0,0.0,0.0,627,2019-04-03 15:55:05:383
0.57,0.54,9.87,0.0,-0.09,0.02,0.0,0.0,0.0,632,2019-04-03 15:55:05:388
0.57,0.54,9.87,0.0,-0.09,0.02,0.0,0.0,0.0,638,2019-04-03 15:55:05:394
0.32,0.37,9.91,-0.22,-0.26,0.08,0.0,0.0,0.0,643,2019-04-03 15:55:05:399
0.32,0.37,9.91,-0.22,-0.26,0.08,0.0,0.0,0.0,647,2019-04-03 15:55:05:403
0.32,0.37,9.91,-0.22,-0.26,0.08,0.0,0.0,0.0,653,2019-04-03 15:55:05:409
0.32,0.37,9.91,-0.22,-0.26,0.08,0.0,0.0,0.0,657,2019-04-03 15:55:05:413
0.32,0.37,9.91,-0.22,-0.26,0.08,0.0,0.0,0.0,662,2019-04-03 15:55:05:418
0.53,0.5,9.81,-0.01,-0.11,-0.02,0.0,0.0,0.0,667,2019-04-03 15:55:05:423
0.53,0.5,9.81,-0.01,-0.11,-0.02,0.0,0.0,0.0,673,2019-04-03 15:55:05:429
0.53,0.5,9.81,-0.01,-0.11,-0.02,0.0,0.0,0.0,677,2019-04-03 15:55:05:433
0.52,0.32,9.91,-0.01,-0.25,0.06,0.0,0.0,-0.01,682,2019-04-03 15:55:05:438
0.52,0.32,9.91,-0.01,-0.25,0.06,0.0,0.0,-0.01,687,2019-04-03 15:55:05:443
0.52,0.32,9.91,-0.01,-0.25,0.06,0.0,0.0,-0.01,692,2019-04-03 15:55:05:448
0.52,0.32,9.91,-0.01,-0.25,0.06,0.0,0.0,-0.01,697,2019-04-03 15:55:05:453
0.23,0.29,9.88,-0.26,-0.24,0.02,0.0,0.0,-0.03,702,2019-04-03 15:55:05:458
0.23,0.29,9.88,-0.26,-0.24,0.02,0.0,0.0,-0.03,707,2019-04-03 15:55:05:463
0.23,0.29,9.88,-0.26,-0.24,0.02,0.0,0.0,-0.03,712,2019-04-03 15:55:05:468
0.23,0.29,9.88,-0.26,-0.24,0.02,0.0,0.0,-0.03,717,2019-04-03 15:55:05:473
0.23,0.29,9.88,-0.26,-0.24,0.02,0.0,0.0,-0.03,722,2019-04-03 15:55:05:478
0.23,0.29,9.88,-0.26,-0.24,0.02,0.0,0.0,-0.03,727,2019-04-03 15:55:05:483
0.48,0.36,9.87,-0.26,-0.24,0.02,0.0,-0.01,-0.05,732,2019-04-03 15:55:05:488
0.48,0.36,9.87,-0.01,-0.12,0.0,0.0,-0.01,-0.05,737,2019-04-03 15:55:05:493
0.48,0.36,9.87,-0.01,-0.12,0.0,0.0,-0.01,-0.06,742,2019-04-03 15:55:05:498
0.48,0.36,9.87,-0.01,0.07,-0.1,0.0,-0.01,-0.06,747,2019-04-03 15:55:05:503
0.48,0.36,9.87,-0.01,0.07,-0.1,0.0,-0.01,-0.06,752,2019-04-03 15:55:05:508
0.48,0.36,9.87,-0.01,0.07,-0.1,0.0,-0.01,-0.06,757,2019-04-03 15:55:05:513
0.58,0.77,9.8,-0.01,0.07,-0.1,0.0,-0.01,-0.06,762,2019-04-03 15:55:05:518
0.58,0.77,9.8,0.06,0.32,-0.06,0.01,0.0,-0.06,767,2019-04-03 15:55:05:523
0.58,0.77,9.8,0.06,0.32,-0.06,0.01,0.0,-0.06,772,2019-04-03 15:55:05:528
0.58,0.77,9.8,0.06,0.32,-0.06,0.01,0.0,-0.06,777,2019-04-03 15:55:05:533
0.58,0.77,9.8,0.06,0.32,-0.06,0.01,0.0,-0.06,782,2019-04-03 15:55:05:538
0.47,0.87,9.74,-0.03,0.4,-0.12,0.0,-0.02,-0.06,787,2019-04-03 15:55:05:543
0.47,0.87,9.74,-0.03,0.4,-0.12,0.0,-0.02,-0.06,792,2019-04-03 15:55:05:548
0.47,0.87,9.74,-0.03,0.4,-0.12,0.0,-0.02,-0.06,798,2019-04-03 15:55:05:554
1.33,0.22,10.48,-0.03,0.4,-0.12,0.0,-0.03,-0.05,802,2019-04-03 15:55:05:558
1.33,0.22,10.48,0.78,-0.23,0.59,0.0,-0.03,-0.05,807,2019-04-03 15:55:05:563
1.33,0.22,10.48,0.78,-0.23,0.59,0.0,-0.03,-0.05,812,2019-04-03 15:55:05:568
1.33,0.22,10.48,0.78,-0.23,0.59,0.0,-0.03,-0.05,817,2019-04-03 15:55:05:573
-0.18,4.98,6.99,-0.75,4.21,-2.7,0.05,0.0,-0.02,822,2019-04-03 15:55:05:578
-0.18,4.98,6.99,-0.75,4.21,-2.7,0.05,0.0,-0.02,828,2019-04-03 15:55:05:584
-0.18,4.98,6.99,-0.75,4.21,-2.7,0.05,0.0,-0.02,832,2019-04-03 15:55:05:588
-0.18,4.98,6.99,-0.75,4.21,-2.7,0.05,0.0,-0.02,837,2019-04-03 15:55:05:593
0.65,-0.13,11.63,0.0,-0.87,1.73,-0.14,-0.11,-0.01,842,2019-04-03 15:55:05:598
0.65,-0.13,11.63,0.0,-0.87,1.73,-0.14,-0.11,-0.01,847,2019-04-03 15:55:05:603
0.65,-0.13,11.63,0.0,-0.87,1.73,-0.14,-0.11,-0.01,851,2019-04-03 15:55:05:607
0.65,-0.13,11.63,0.0,-0.87,1.73,-0.14,-0.11,-0.01,857,2019-04-03 15:55:05:613
0.65,-0.13,11.63,0.0,-0.87,1.73,-0.14,-0.11,-0.01,862,2019-04-03 15:55:05:618
0.65,-0.13,11.63,0.0,-0.87,1.73,-0.14,-0.11,-0.01,867,2019-04-03 15:55:05:623
2.92,-1.1,12.25,2.28,-1.85,2.32,0.13,0.1,0.02,872,2019-04-03 15:55:05:628
2.92,-1.1,12.25,2.28,-1.85,2.32,0.13,0.1,0.02,878,2019-04-03 15:55:05:634
0.14,1.89,9.78,2.28,-1.85,2.32,0.02,0.12,0.0,882,2019-04-03 15:55:05:638
0.14,1.89,9.78,1.32,-0.76,0.93,0.02,0.12,0.0,887,2019-04-03 15:55:05:643
0.14,1.89,9.78,1.32,-0.76,0.93,0.02,0.12,0.0,892,2019-04-03 15:55:05:648
0.14,1.89,9.78,1.32,-0.76,0.93,0.02,0.12,0.0,897,2019-04-03 15:55:05:653
0.14,1.89,9.78,1.32,-0.76,0.93,0.02,0.12,0.0,902,2019-04-03 15:55:05:658
-0.6,-0.27,8.97,-1.21,-1.03,-0.98,-0.1,-0.06,-0.01,907,2019-04-03 15:55:05:663
-0.6,-0.27,8.97,-1.21,-1.03,-0.98,-0.1,-0.06,-0.01,912,2019-04-03 15:55:05:668
-0.6,-0.27,8.97,-1.21,-1.03,-0.98,-0.1,-0.06,-0.01,917,2019-04-03 15:55:05:673
0.79,0.65,10.14,0.13,-0.2,0.19,0.08,-0.05,-0.03,922,2019-04-03 15:55:05:678
0.79,0.65,10.14,0.13,-0.2,0.19,0.08,-0.05,-0.03,926,2019-04-03 15:55:05:682
0.79,0.65,10.14,0.13,-0.2,0.19,0.08,-0.05,-0.03,932,2019-04-03 15:55:05:688
0.79,0.65,10.14,0.13,-0.2,0.19,0.08,-0.05,-0.03,938,2019-04-03 15:55:05:694
0.79,0.65,10.14,0.13,-0.2,0.19,0.08,-0.05,-0.03,942,2019-04-03 15:55:05:698
0.79,0.65,10.14,0.13,-0.2,0.19,0.08,-0.05,-0.03,947,2019-04-03 15:55:05:703
0.66,2.0,9.61,0.02,1.04,-0.34,-0.01,0.02,-0.02,952,2019-04-03 15:55:05:708
0.66,2.0,9.61,0.02,1.04,-0.34,-0.01,0.02,-0.02,957,2019-04-03 15:55:05:713
0.66,2.0,9.61,0.02,1.04,-0.34,-0.01,0.02,-0.02,962,2019-04-03 15:55:05:718
1.01,1.78,9.2,0.02,1.04,-0.34,0.0,0.0,-0.03,967,2019-04-03 15:55:05:723
1.01,1.78,9.2,0.02,1.04,-0.34,0.0,0.0,-0.03,972,2019-04-03 15:55:05:728
1.01,1.78,9.2,0.02,1.04,-0.34,0.0,0.0,-0.03,977,2019-04-03 15:55:05:733
0.48,0.53,9.94,-0.16,-0.42,0.0,0.06,-0.01,-0.03,982,2019-04-03 15:55:05:738
0.48,0.53,9.94,-0.16,-0.42,0.0,0.06,-0.01,-0.03,987,2019-04-03 15:55:05:743
0.48,0.53,9.94,-0.16,-0.42,0.0,0.06,-0.01,-0.03,992,2019-04-03 15:55:05:748
0.48,0.53,9.94,-0.16,-0.42,0.0,0.06,-0.01,-0.03,997,2019-04-03 15:55:05:753
0.82,1.4,9.75,-0.16,-0.42,0.0,0.06,-0.01,-0.03,1002,2019-04-03 15:55:05:758
0.82,1.4,9.75,0.2,0.39,-0.16,0.0,0.0,-0.01,1007,2019-04-03 15:55:05:763
0.82,1.4,9.75,0.2,0.39,-0.16,0.0,0.0,-0.01,1012,2019-04-03 15:55:05:768
0.82,1.4,9.75,0.2,0.39,-0.16,0.0,0.0,-0.01,1017,2019-04-03 15:55:05:773
0.78,0.59,10.16,0.17,-0.11,0.05,-0.04,0.01,0.0,1022,2019-04-03 15:55:05:778
0.78,0.59,10.16,0.17,-0.11,0.05,-0.04,0.01,0.0,1027,2019-04-03 15:55:05:783
0.78,0.59,10.16,0.17,-0.11,0.05,-0.04,0.01,0.0,1032,2019-04-03 15:55:05:788
0.78,0.59,10.16,0.17,-0.11,0.05,-0.04,0.01,0.0,1037,2019-04-03 15:55:05:793
0.45,0.78,9.93,-0.06,-0.02,0.04,0.04,0.0,0.0,1042,2019-04-03 15:55:05:798
0.45,0.78,9.93,-0.06,-0.02,0.04,0.04,0.0,0.0,1046,2019-04-03 15:55:05:802
0.45,0.78,9.93,-0.06,-0.02,0.04,0.04,0.0,0.0,1051,2019-04-03 15:55:05:807
0.45,0.78,9.93,-0.06,-0.02,0.04,0.04,0.0,0.0,1057,2019-04-03 15:55:05:813
0.45,0.78,9.93,-0.06,-0.02,0.04,0.04,0.0,0.0,1063,2019-04-03 15:55:05:819
0.55,1.52,9.62,0.02,0.63,-0.22,0.0,0.0,0.0,1067,2019-04-03 15:55:05:823
0.55,1.52,9.62,0.02,0.63,-0.22,0.0,0.0,0.0,1072,2019-04-03 15:55:05:828
0.55,1.52,9.62,0.02,0.63,-0.22,0.0,0.0,0.0,1077,2019-04-03 15:55:05:833
0.55,1.52,9.62,0.02,0.63,-0.22,0.0,0.0,0.0,1082,2019-04-03 15:55:05:838
0.72,0.7,10.06,0.1,-0.16,0.23,-0.02,0.0,0.0,1087,2019-04-03 15:55:05:843
0.72,0.7,10.06,0.1,-0.16,0.23,-0.02,0.0,0.0,1092,2019-04-03 15:55:05:848
0.72,0.7,10.06,0.1,-0.16,0.23,-0.02,0.0,0.0,1097,2019-04-03 15:55:05:853
0.64,0.62,9.98,0.03,-0.35,0.16,0.03,0.0,0.01,1102,2019-04-03 15:55:05:858
0.64,0.62,9.98,0.03,-0.35,0.16,0.03,0.0,0.01,1107,2019-04-03 15:55:05:863
0.64,0.62,9.98,0.03,-0.35,0.16,0.03,0.0,0.01,1113,2019-04-03 15:55:05:869
0.64,0.62,9.98,0.03,-0.35,0.16,0.03,0.0,0.01,1117,2019-04-03 15:55:05:873
0.55,0.94,9.77,0.0,0.03,-0.04,0.0,0.0,0.01,1121,2019-04-03 15:55:05:877
0.55,0.94,9.77,0.0,0.03,-0.04,0.0,0.0,0.01,1127,2019-04-03 15:55:05:883
0.55,0.94,9.77,0.0,0.03,-0.04,0.0,0.0,0.01,1132,2019-04-03 15:55:05:888
0.55,0.94,9.77,0.0,0.03,-0.04,0.0,0.0,0.01,1137,2019-04-03 15:55:05:893
0.55,0.94,9.77,0.0,0.03,-0.04,0.0,0.0,0.01,1143,2019-04-03 15:55:05:899
0.55,0.94,9.77,0.0,0.03,-0.04,0.0,0.0,0.01,1147,2019-04-03 15:55:05:903
0.59,0.46,10.02,0.02,-0.35,0.19,-0.01,0.0,0.01,1153,2019-04-03 15:55:05:909
0.59,0.46,10.02,0.02,-0.35,0.19,-0.01,0.0,0.01,1157,2019-04-03 15:55:05:913
0.59,0.46,10.02,0.02,-0.35,0.19,-0.01,0.0,0.01,1162,2019-04-03 15:55:05:918
0.63,0.74,9.88,0.04,-0.12,0.04,0.02,0.0,0.02,1167,2019-04-03 15:55:05:923
0.63,0.74,9.88,0.04,-0.12,0.04,0.02,0.0,0.02,1172,2019-04-03 15:55:05:928
0.63,0.74,9.88,0.04,-0.12,0.04,0.02,0.0,0.02,1177,2019-04-03 15:55:05:933
0.54,0.95,9.76,-0.02,0.13,-0.09,0.0,0.0,0.02,1182,2019-04-03 15:55:05:938
0.54,0.95,9.76,-0.02,0.13,-0.09,0.0,0.0,0.02,1187,2019-04-03 15:55:05:943
0.54,0.95,9.76,-0.02,0.13,-0.09,0.0,0.0,0.02,1192,2019-04-03 15:55:05:948
0.54,0.95,9.76,-0.02,0.13,-0.09,0.0,0.0,0.02,1197,2019-04-03 15:55:05:953
0.69,0.53,9.96,-0.02,0.13,-0.09,0.0,0.0,0.02,1202,2019-04-03 15:55:05:958
0.69,0.53,9.96,0.12,-0.26,0.09,0.0,0.0,0.02,1207,2019-04-03 15:55:05:963
0.69,0.53,9.96,0.12,-0.26,0.09,0.0,0.0,0.02,1211,2019-04-03 15:55:05:967
0.69,0.53,9.96,0.12,-0.26,0.09,0.0,0.0,0.02,1217,2019-04-03 15:55:05:973
0.69,0.53,9.96,0.12,-0.26,0.09,0.0,0.0,0.02,1222,2019-04-03 15:55:05:978
0.69,0.53,9.96,0.12,-0.26,0.09,0.0,0.0,0.02,1227,2019-04-03 15:55:05:983
0.52,0.77,9.82,-0.04,-0.04,-0.03,0.01,0.0,0.03,1232,2019-04-03 15:55:05:988
0.52,0.77,9.82,-0.04,-0.04,-0.03,0.01,0.0,0.03,1237,2019-04-03 15:55:05:993
0.52,0.77,9.82,-0.04,-0.04,-0.03,0.01,0.0,0.03,1242,2019-04-03 15:55:05:998
0.52,0.77,9.82,-0.04,-0.04,-0.03,0.01,0.0,0.03,1247,2019-04-03 15:55:06:003
0.5,0.75,9.84,-0.07,-0.02,-0.03,0.0,0.0,0.02,1252,2019-04-03 15:55:06:008
0.5,0.75,9.84,-0.07,-0.02,-0.03,0.0,0.0,0.02,1257,2019-04-03 15:55:06:013
0.58,0.55,9.88,0.0,-0.17,-0.01,0.0,0.0,0.02,1262,2019-04-03 15:55:06:018
0.58,0.55,9.88,0.0,-0.17,-0.01,0.0,0.0,0.02,1268,2019-04-03 15:55:06:024
0.58,0.55,9.88,0.0,-0.17,-0.01,0.0,0.0,0.02,1272,2019-04-03 15:55:06:028
0.58,0.55,9.88,0.0,-0.17,-0.01,0.0,0.0,0.02,1276,2019-04-03 15:55:06:032
0.58,0.55,9.88,0.0,-0.17,-0.01,0.0,0.0,0.02,1282,2019-04-03 15:55:06:038
0.49,0.74,9.8,-0.08,0.02,-0.08,0.0,0.0,0.02,1287,2019-04-03 15:55:06:043
0.49,0.74,9.8,-0.08,0.02,-0.08,0.0,0.0,0.02,1292,2019-04-03 15:55:06:048
0.49,0.74,9.8,-0.08,0.02,-0.08,0.0,0.0,0.02,1297,2019-04-03 15:55:06:053
0.59,0.64,9.86,0.01,-0.04,-0.01,0.0,0.0,0.02,1302,2019-04-03 15:55:06:058
0.59,0.64,9.86,0.01,-0.04,-0.01,0.0,0.0,0.02,1307,2019-04-03 15:55:06:063
0.59,0.64,9.86,0.01,-0.04,-0.01,0.0,0.0,0.02,1312,2019-04-03 15:55:06:068
0.59,0.64,9.86,0.01,-0.04,-0.01,0.0,0.0,0.02,1317,2019-04-03 15:55:06:073
0.77,0.59,9.86,0.17,-0.09,-0.01,0.0,0.0,0.01,1323,2019-04-03 15:55:06:079
0.77,0.59,9.86,0.17,-0.09,-0.01,0.0,0.0,0.01,1328,2019-04-03 15:55:06:084
0.77,0.59,9.86,0.17,-0.09,-0.01,0.0,0.0,0.01,1332,2019-04-03 15:55:06:088
0.77,0.59,9.86,0.17,-0.09,-0.01,0.0,0.0,0.01,1337,2019-04-03 15:55:06:093
0.86,0.64,9.86,0.23,-0.06,0.0,0.0,0.0,0.03,1342,2019-04-03 15:55:06:098
0.86,0.64,9.86,0.23,-0.06,0.0,0.0,0.0,0.03,1347,2019-04-03 15:55:06:103
0.86,0.64,9.86,0.23,-0.06,0.0,0.0,0.0,0.03,1352,2019-04-03 15:55:06:108
0.86,0.64,9.86,0.23,-0.06,0.0,0.0,0.0,0.03,1357,2019-04-03 15:55:06:113
0.86,0.64,9.86,0.23,-0.06,0.0,0.0,0.0,0.03,1362,2019-04-03 15:55:06:118
0.85,0.57,9.83,0.21,-0.1,-0.03,0.0,0.0,0.04,1367,2019-04-03 15:55:06:123
0.85,0.57,9.83,0.21,-0.1,-0.03,0.0,0.0,0.04,1373,2019-04-03 15:55:06:129
0.85,0.57,9.83,0.21,-0.1,-0.03,0.0,0.0,0.04,1377,2019-04-03 15:55:06:133
0.7,0.65,9.91,0.21,-0.1,-0.03,0.0,0.01,0.06,1382,2019-04-03 15:55:06:138
0.7,0.65,9.91,0.05,-0.01,0.05,0.0,0.01,0.06,1387,2019-04-03 15:55:06:143
0.7,0.65,9.91,0.05,-0.01,0.05,0.0,0.01,0.06,1392,2019-04-03 15:55:06:148
0.7,0.65,9.91,0.05,-0.01,0.05,0.0,0.01,0.06,1397,2019-04-03 15:55:06:153
0.57,0.64,9.73,-0.08,-0.01,-0.13,0.0,0.0,0.07,1402,2019-04-03 15:55:06:158
0.57,0.64,9.73,-0.08,-0.01,-0.13,0.0,0.0,0.07,1407,2019-04-03 15:55:06:163
0.57,0.64,9.73,-0.08,-0.01,-0.13,0.0,0.0,0.07,1412,2019-04-03 15:55:06:168
0.57,0.64,9.73,-0.08,-0.01,-0.13,0.0,0.0,0.07,1417,2019-04-03 15:55:06:173
0.69,0.44,9.9,0.01,-0.18,0.02,0.0,0.0,0.08,1422,2019-04-03 15:55:06:178
0.69,0.44,9.9,0.01,-0.18,0.02,0.0,0.0,0.08,1427,2019-04-03 15:55:06:183
0.69,0.44,9.9,0.01,-0.18,0.02,0.0,0.0,0.08,1432,2019-04-03 15:55:06:188
0.69,0.44,9.9,0.01,-0.18,0.02,0.0,0.0,0.08,1438,2019-04-03 15:55:06:194
0.64,0.4,9.98,-0.03,-0.19,0.11,0.0,0.01,0.08,1442,2019-04-03 15:55:06:198
0.64,0.4,9.98,-0.03,-0.19,0.11,0.0,0.01,0.08,1448,2019-04-03 15:55:06:204
0.64,0.4,9.98,-0.03,-0.19,0.11,0.0,0.01,0.08,1452,2019-04-03 15:55:06:208
0.64,0.4,9.98,-0.03,-0.19,0.11,0.0,0.01,0.08,1458,2019-04-03 15:55:06:214
0.56,0.28,9.49,-0.11,-0.28,-0.36,0.0,0.0,0.07,1468,2019-04-03 15:55:06:224
0.56,0.28,9.49,-0.11,-0.28,-0.36,0.0,0.0,0.07,1469,2019-04-03 15:55:06:225
0.56,0.28,9.49,-0.11,-0.28,-0.36,0.0,0.0,0.07,1485,2019-04-03 15:55:06:241
0.57,0.15,10.12,-0.12,-0.37,0.29,0.0,0.01,0.06,1492,2019-04-03 15:55:06:248
0.57,0.15,10.12,-0.12,-0.37,0.29,0.0,0.03,0.05,1501,2019-04-03 15:55:06:257
0.57,0.15,10.12,0.25,-0.25,-0.02,0.0,0.03,0.05,1502,2019-04-03 15:55:06:258
0.57,0.15,10.12,0.25,-0.25,-0.02,0.0,0.03,0.05,1502,2019-04-03 15:55:06:258
0.57,0.15,10.12,0.25,-0.25,-0.02,0.0,0.03,0.05,1503,2019-04-03 15:55:06:259
0.57,0.15,10.12,0.25,-0.25,-0.02,0.0,0.03,0.05,1503,2019-04-03 15:55:06:259
0.57,0.15,10.12,0.25,-0.25,-0.02,0.0,0.03,0.05,1506,2019-04-03 15:55:06:262
0.57,0.15,10.12,0.25,-0.25,-0.02,0.0,0.03,0.05,1512,2019-04-03 15:55:06:268
0.57,0.15,10.12,0.25,-0.25,-0.02,0.0,0.03,0.05,1517,2019-04-03 15:55:06:273
0.47,0.38,9.81,-0.15,-0.08,0.03,-0.01,-0.01,0.02,1522,2019-04-03 15:55:06:278
0.47,0.38,9.81,-0.15,-0.08,0.03,-0.01,-0.01,0.02,1527,2019-04-03 15:55:06:283
0.47,0.38,9.81,-0.15,-0.08,0.03,-0.01,-0.01,0.02,1532,2019-04-03 15:55:06:288
0.47,0.38,9.81,-0.15,-0.08,0.03,-0.01,-0.01,0.02,1537,2019-04-03 15:55:06:293
0.82,0.43,9.99,0.22,-0.02,0.22,0.0,0.01,0.0,1541,2019-04-03 15:55:06:297
0.82,0.43,9.99,0.22,-0.02,0.22,0.0,0.01,0.0,1548,2019-04-03 15:55:06:304
0.82,0.43,9.99,0.22,-0.02,0.22,0.0,0.01,0.0,1553,2019-04-03 15:55:06:309
0.82,0.43,9.99,0.22,-0.02,0.22,0.0,0.01,0.0,1557,2019-04-03 15:55:06:313
0.26,0.62,9.75,0.22,-0.02,0.22,0.0,0.02,0.0,1563,2019-04-03 15:55:06:319
0.26,0.62,9.75,-0.29,0.17,-0.01,0.0,0.02,0.0,1568,2019-04-03 15:55:06:324
0.26,0.62,9.75,-0.29,0.17,-0.01,0.0,0.0,-0.01,1572,2019-04-03 15:55:06:328
0.26,0.62,9.75,-0.29,0.17,-0.01,0.0,0.0,-0.01,1577,2019-04-03 15:55:06:333
0.26,0.62,9.75,-0.29,0.17,-0.01,0.0,0.0,-0.01,1582,2019-04-03 15:55:06:338
0.26,0.62,9.75,-0.29,0.17,-0.01,0.0,0.0,-0.01,1587,2019-04-03 15:55:06:343
0.26,0.62,9.75,-0.29,0.17,-0.01,0.0,0.0,-0.01,1592,2019-04-03 15:55:06:348
0.26,0.62,9.75,-0.29,0.17,-0.01,0.0,0.0,-0.01,1597,2019-04-03 15:55:06:353
0.87,0.71,9.91,-0.29,0.17,-0.01,0.0,0.01,-0.01,1602,2019-04-03 15:55:06:358
0.87,0.71,9.91,0.31,0.26,0.14,0.0,0.01,-0.01,1608,2019-04-03 15:55:06:364
0.59,0.61,9.79,0.31,0.26,0.14,0.0,0.01,0.0,1614,2019-04-03 15:55:06:370
0.59,0.61,9.79,0.31,0.26,0.14,0.0,0.01,0.0,1618,2019-04-03 15:55:06:374
0.59,0.61,9.79,0.31,0.26,0.14,0.0,0.01,0.0,1623,2019-04-03 15:55:06:379
0.59,0.61,9.79,0.31,0.26,0.14,0.0,0.01,0.0,1627,2019-04-03 15:55:06:383
0.59,0.61,9.79,0.04,0.13,0.03,0.0,0.01,0.0,1634,2019-04-03 15:55:06:390
0.59,0.61,9.79,0.04,0.13,0.03,0.0,0.01,0.0,1637,2019-04-03 15:55:06:393
0.54,0.73,9.77,0.04,0.13,0.03,0.0,0.0,0.0,1642,2019-04-03 15:55:06:398
0.54,0.73,9.77,0.04,0.13,0.03,0.0,0.0,0.0,1648,2019-04-03 15:55:06:404
0.54,0.73,9.77,0.04,0.13,0.03,0.0,0.0,0.0,1652,2019-04-03 15:55:06:408
0.54,0.73,9.77,0.04,0.13,0.03,0.0,0.0,0.0,1657,2019-04-03 15:55:06:413
0.54,0.68,9.85,0.01,0.16,0.08,0.0,0.0,0.0,1662,2019-04-03 15:55:06:418
0.54,0.68,9.85,0.01,0.16,0.08,0.0,0.0,0.0,1667,2019-04-03 15:55:06:423
0.54,0.68,9.85,0.01,0.16,0.08,0.0,0.0,0.0,1672,2019-04-03 15:55:06:428
0.54,0.68,9.85,0.01,0.16,0.08,0.0,0.0,0.0,1677,2019-04-03 15:55:06:433
0.54,0.68,9.85,0.01,0.16,0.08,0.0,0.0,0.0,1682,2019-04-03 15:55:06:438
0.42,0.54,9.82,-0.08,0.0,0.02,0.0,0.0,0.0,1687,2019-04-03 15:55:06:443
0.42,0.54,9.82,-0.08,0.0,0.02,0.0,0.0,0.0,1691,2019-04-03 15:55:06:447
0.42,0.54,9.82,-0.08,0.0,0.02,0.0,0.0,0.0,1697,2019-04-03 15:55:06:453
0.42,0.54,9.82,-0.08,0.0,0.02,0.0,0.0,0.0,1703,2019-04-03 15:55:06:459
0.42,0.54,9.82,-0.08,0.0,0.02,0.0,0.0,0.0,1707,2019-04-03 15:55:06:463
-0.21,0.54,9.24,-0.71,-0.02,-0.57,0.0,0.0,-0.01,1713,2019-04-03 15:55:06:469
-0.21,0.54,9.24,-0.71,-0.02,-0.57,0.0,0.0,-0.01,1717,2019-04-03 15:55:06:473
-0.21,0.54,9.24,-0.71,-0.02,-0.57,0.0,0.0,-0.01,1722,2019-04-03 15:55:06:478
-0.21,0.54,9.24,-0.71,-0.02,-0.57,0.0,0.0,-0.01,1729,2019-04-03 15:55:06:485
-0.21,0.54,9.24,-0.71,-0.02,-0.57,0.0,0.0,-0.01,1732,2019-04-03 15:55:06:488
-0.21,0.54,9.24,-0.71,-0.02,-0.57,0.0,0.0,-0.01,1738,2019-04-03 15:55:06:494
0.63,0.29,9.82,0.12,-0.25,0.02,0.0,-0.04,-0.03,1742,2019-04-03 15:55:06:498
0.63,0.29,9.82,0.12,-0.25,0.02,0.0,-0.04,-0.03,1747,2019-04-03 15:55:06:503
0.63,0.29,9.82,0.12,-0.25,0.02,0.0,-0.04,-0.03,1752,2019-04-03 15:55:06:508
0.63,0.29,9.82,0.12,-0.25,0.02,0.0,-0.04,-0.03,1757,2019-04-03 15:55:06:513
1.52,0.3,10.81,0.97,-0.24,0.98,0.01,0.0,-0.04,1762,2019-04-03 15:55:06:518
1.52,0.3,10.81,0.97,-0.24,0.98,0.01,0.0,-0.04,1769,2019-04-03 15:55:06:525
1.52,0.3,10.81,0.97,-0.24,0.98,0.01,0.0,-0.04,1772,2019-04-03 15:55:06:528
1.52,0.3,10.81,0.97,-0.24,0.98,0.01,0.0,-0.04,1777,2019-04-03 15:55:06:533
1.52,0.3,10.81,0.97,-0.24,0.98,0.01,0.0,-0.04,1783,2019-04-03 15:55:06:539
0.93,0.42,10.01,0.43,-0.08,0.21,-0.01,0.05,-0.04,1787,2019-04-03 15:55:06:543
0.93,0.42,10.01,0.43,-0.08,0.21,-0.01,0.05,-0.04,1791,2019-04-03 15:55:06:547
0.93,0.42,10.01,0.43,-0.08,0.21,-0.01,0.05,-0.04,1797,2019-04-03 15:55:06:553
0.93,0.42,10.01,0.43,-0.08,0.21,-0.01,0.05,-0.04,1803,2019-04-03 15:55:06:559
0.93,0.42,10.01,0.43,-0.08,0.21,-0.01,0.05,-0.04,1807,2019-04-03 15:55:06:563
0.28,0.58,9.76,-0.21,0.06,-0.01,0.01,-0.03,-0.05,1812,2019-04-03 15:55:06:568
0.28,0.58,9.76,-0.21,0.06,-0.01,0.01,-0.03,-0.05,1817,2019-04-03 15:55:06:573
0.28,0.58,9.76,-0.21,0.06,-0.01,0.01,-0.03,-0.05,1822,2019-04-03 15:55:06:578
0.28,0.58,9.76,-0.21,0.06,-0.01,0.01,-0.03,-0.05,1828,2019-04-03 15:55:06:584
1.05,0.76,10.02,-0.21,0.06,-0.01,0.01,-0.03,-0.05,1832,2019-04-03 15:55:06:588
1.05,0.76,10.02,0.53,0.24,0.23,0.0,0.0,-0.05,1837,2019-04-03 15:55:06:593
1.05,0.76,10.02,0.53,0.24,0.23,0.0,0.0,-0.05,1842,2019-04-03 15:55:06:598
1.05,0.76,10.02,0.53,0.24,0.23,0.0,0.0,-0.05,1847,2019-04-03 15:55:06:603
0.87,0.72,9.95,0.32,0.19,0.14,0.0,0.01,-0.05,1853,2019-04-03 15:55:06:609
0.87,0.72,9.95,0.32,0.19,0.14,0.0,0.01,-0.05,1857,2019-04-03 15:55:06:613
0.87,0.72,9.95,0.32,0.19,0.14,0.0,0.01,-0.05,1863,2019-04-03 15:55:06:619
0.87,0.72,9.95,0.32,0.19,0.14,0.0,0.01,-0.05,1867,2019-04-03 15:55:06:623
0.54,0.66,9.83,-0.05,0.11,0.02,0.0,0.0,-0.04,1871,2019-04-03 15:55:06:627
0.54,0.66,9.83,-0.05,0.11,0.02,0.0,0.0,-0.04,1877,2019-04-03 15:55:06:633
0.54,0.66,9.83,-0.05,0.11,0.02,0.0,0.0,-0.04,1882,2019-04-03 15:55:06:638
0.54,0.66,9.83,-0.05,0.11,0.02,0.0,0.0,-0.04,1887,2019-04-03 15:55:06:643
0.67,0.86,9.77,0.04,0.27,-0.04,0.0,0.0,-0.03,1893,2019-04-03 15:55:06:649
0.67,0.86,9.77,0.04,0.27,-0.04,0.0,0.0,-0.03,1896,2019-04-03 15:55:06:652
0.67,0.86,9.77,0.04,0.27,-0.04,0.0,0.0,-0.03,1902,2019-04-03 15:55:06:658
0.67,0.86,9.77,0.04,0.27,-0.04,0.0,0.0,-0.03,1907,2019-04-03 15:55:06:663
0.91,0.67,9.96,0.23,0.06,0.1,0.0,0.0,-0.04,1914,2019-04-03 15:55:06:670
0.91,0.67,9.96,0.23,0.06,0.1,0.0,0.0,-0.04,1918,2019-04-03 15:55:06:674
0.91,0.67,9.96,0.23,0.06,0.1,0.0,0.0,-0.04,1922,2019-04-03 15:55:06:678
0.91,0.67,9.96,0.23,0.06,0.1,0.0,0.0,-0.04,1927,2019-04-03 15:55:06:683
0.91,0.67,9.96,0.23,0.06,0.1,0.0,0.0,-0.04,1932,2019-04-03 15:55:06:688
0.91,0.67,9.96,0.23,0.06,0.1,0.0,0.0,-0.04,1937,2019-04-03 15:55:06:693
0.52,0.85,9.78,-0.14,0.18,-0.06,0.0,0.01,-0.04,1942,2019-04-03 15:55:06:698
0.52,0.85,9.78,-0.14,0.18,-0.06,0.0,0.01,-0.04,1946,2019-04-03 15:55:06:702
0.52,0.85,9.78,-0.14,0.18,-0.06,0.0,0.0,-0.05,1954,2019-04-03 15:55:06:710
0.52,0.85,9.78,-0.14,0.18,-0.06,0.0,0.0,-0.05,1957,2019-04-03 15:55:06:713
0.52,0.85,9.78,-0.14,0.18,-0.06,0.0,0.0,-0.05,1963,2019-04-03 15:55:06:719
0.52,0.85,9.78,-0.14,0.18,-0.06,0.0,0.0,-0.05,1969,2019-04-03 15:55:06:725
0.53,0.82,9.8,-0.15,0.06,-0.04,0.0,0.0,-0.05,1972,2019-04-03 15:55:06:728
0.53,0.82,9.8,-0.15,0.06,-0.04,0.0,0.0,-0.05,1978,2019-04-03 15:55:06:734
0.53,0.82,9.8,-0.15,0.06,-0.04,0.0,0.0,-0.05,1984,2019-04-03 15:55:06:740
0.53,0.82,9.8,-0.15,0.06,-0.04,0.0,0.0,-0.05,1986,2019-04-03 15:55:06:742
0.67,1.04,9.88,-0.01,0.24,0.01,0.0,0.0,-0.05,1992,2019-04-03 15:55:06:748
0.67,1.04,9.88,-0.01,0.24,0.01,0.0,0.0,-0.05,1997,2019-04-03 15:55:06:753
0.67,1.04,9.88,-0.01,0.24,0.01,0.0,0.0,-0.05,2002,2019-04-03 15:55:06:758
0.67,1.04,9.88,-0.01,0.24,0.01,0.0,0.0,-0.05,2007,2019-04-03 15:55:06:763
0.39,0.9,9.83,-0.27,0.08,-0.02,-0.01,0.0,-0.05,2013,2019-04-03 15:55:06:769
0.39,0.9,9.83,-0.27,0.08,-0.02,-0.01,0.0,-0.05,2018,2019-04-03 15:55:06:774
0.39,0.9,9.83,-0.27,0.08,-0.02,-0.01,0.0,-0.05,2022,2019-04-03 15:55:06:778
0.39,0.9,9.83,-0.27,0.08,-0.02,-0.01,0.0,-0.05,2027,2019-04-03 15:55:06:783
0.39,0.9,9.83,-0.27,0.08,-0.02,-0.01,0.0,-0.05,2031,2019-04-03 15:55:06:787
0.36,1.11,9.7,-0.27,0.24,-0.14,0.0,0.0,-0.06,2037,2019-04-03 15:55:06:793
0.36,1.11,9.7,-0.27,0.24,-0.14,0.0,0.0,-0.06,2042,2019-04-03 15:55:06:798
0.36,1.11,9.7,-0.27,0.24,-0.14,0.0,0.0,-0.06,2047,2019-04-03 15:55:06:803
0.39,1.31,9.94,-0.21,0.39,0.08,-0.01,0.0,-0.07,2052,2019-04-03 15:55:06:808
0.39,1.31,9.94,-0.21,0.39,0.08,-0.01,0.0,-0.07,2057,2019-04-03 15:55:06:813
0.39,1.31,9.94,-0.21,0.39,0.08,-0.01,0.0,-0.07,2062,2019-04-03 15:55:06:818
0.39,1.31,9.94,-0.21,0.39,0.08,-0.01,0.0,-0.07,2068,2019-04-03 15:55:06:824
0.3,0.86,9.99,-0.27,-0.1,0.13,0.0,-0.01,-0.07,2072,2019-04-03 15:55:06:828
0.3,0.86,9.99,-0.27,-0.1,0.13,0.0,-0.01,-0.07,2077,2019-04-03 15:55:06:833
0.3,0.86,9.99,-0.27,-0.1,0.13,0.0,-0.01,-0.07,2085,2019-04-03 15:55:06:841
0.3,0.86,9.99,-0.27,-0.1,0.13,0.0,-0.01,-0.07,2087,2019-04-03 15:55:06:843
0.3,0.86,9.99,-0.27,-0.1,0.13,0.0,-0.01,-0.07,2092,2019-04-03 15:55:06:848
0.3,0.86,9.99,-0.27,-0.1,0.13,0.0,-0.01,-0.07,2096,2019-04-03 15:55:06:852
0.73,1.09,9.99,0.19,0.12,0.14,0.0,0.0,-0.06,2102,2019-04-03 15:55:06:858
0.73,1.09,9.99,0.19,0.12,0.14,0.0,0.0,-0.06,2107,2019-04-03 15:55:06:863
0.73,1.09,9.99,0.19,0.12,0.14,0.0,0.0,-0.06,2113,2019-04-03 15:55:06:869
0.61,1.13,9.97,0.05,-0.03,0.11,0.0,-0.01,-0.08,2118,2019-04-03 15:55:06:874
0.61,1.13,9.97,0.05,-0.03,0.11,0.0,-0.01,-0.08,2123,2019-04-03 15:55:06:879
0.61,1.13,9.97,0.05,-0.03,0.11,0.0,-0.01,-0.08,2126,2019-04-03 15:55:06:882
0.04,1.13,9.79,-0.45,0.1,-0.06,0.0,-0.01,-0.09,2132,2019-04-03 15:55:06:888
0.04,1.13,9.79,-0.45,0.1,-0.06,0.0,-0.01,-0.09,2137,2019-04-03 15:55:06:893
0.04,1.13,9.79,-0.45,0.1,-0.06,0.0,-0.01,-0.09,2142,2019-04-03 15:55:06:898
0.04,1.13,9.79,-0.45,0.1,-0.06,0.0,-0.01,-0.09,2147,2019-04-03 15:55:06:903
0.49,0.88,9.75,0.01,-0.15,-0.1,0.0,-0.02,-0.11,2153,2019-04-03 15:55:06:909
0.49,0.88,9.75,0.01,-0.15,-0.1,0.0,-0.02,-0.11,2157,2019-04-03 15:55:06:913
0.49,0.88,9.75,0.01,-0.15,-0.1,0.0,-0.02,-0.11,2163,2019-04-03 15:55:06:919
0.49,0.88,9.75,0.01,-0.15,-0.1,0.0,-0.02,-0.11,2168,2019-04-03 15:55:06:924
0.49,0.88,9.75,0.01,-0.15,-0.1,0.0,-0.02,-0.11,2172,2019-04-03 15:55:06:928
0.49,0.88,9.75,0.01,-0.15,-0.1,0.0,-0.02,-0.11,2177,2019-04-03 15:55:06:933
0.49,0.88,9.75,0.01,-0.15,-0.1,0.0,-0.02,-0.11,2182,2019-04-03 15:55:06:938
0.76,0.89,9.85,0.3,-0.15,0.01,0.0,0.0,-0.13,2186,2019-04-03 15:55:06:942
0.76,0.89,9.85,0.3,-0.15,0.01,0.0,0.0,-0.13,2192,2019-04-03 15:55:06:948
0.76,0.89,9.85,0.3,-0.15,0.01,0.0,0.0,-0.13,2197,2019-04-03 15:55:06:953
0.76,0.89,9.85,0.3,-0.15,0.01,0.0,0.0,-0.13,2201,2019-04-03 15:55:06:957
0.76,0.89,9.85,0.3,-0.15,0.01,0.0,0.0,-0.13,2207,2019-04-03 15:55:06:963
1.13,1.37,9.94,0.65,0.32,0.04,0.0,-0.01,-0.19,2211,2019-04-03 15:55:06:967
1.13,1.37,9.94,0.65,0.32,0.04,0.0,-0.01,-0.19,2217,2019-04-03 15:55:06:973
1.13,1.37,9.94,0.65,0.32,0.04,0.0,-0.01,-0.19,2223,2019-04-03 15:55:06:979
1.13,1.37,9.94,0.65,0.32,0.04,0.0,-0.01,-0.19,2228,2019-04-03 15:55:06:984
1.04,1.27,9.99,0.65,0.32,0.04,0.0,-0.01,-0.19,2232,2019-04-03 15:55:06:988
1.04,1.27,9.99,0.5,0.19,0.07,-0.01,0.0,-0.21,2238,2019-04-03 15:55:06:994
1.04,1.27,9.99,0.5,0.19,0.07,-0.01,0.0,-0.21,2242,2019-04-03 15:55:06:998
1.04,1.27,9.99,0.5,0.19,0.07,-0.01,0.0,-0.21,2247,2019-04-03 15:55:07:003
0.48,1.66,9.3,-0.06,0.55,-0.57,-0.02,0.01,-0.21,2253,2019-04-03 15:55:07:009
0.48,1.66,9.3,-0.06,0.55,-0.57,-0.02,0.01,-0.21,2259,2019-04-03 15:55:07:015
0.48,1.66,9.3,-0.06,0.55,-0.57,-0.02,0.01,-0.21,2262,2019-04-03 15:55:07:018
0.48,1.66,9.3,-0.06,0.55,-0.57,-0.02,0.01,-0.21,2267,2019-04-03 15:55:07:023
0.48,1.66,9.3,-0.06,0.55,-0.57,-0.02,0.01,-0.21,2272,2019-04-03 15:55:07:028
0.48,1.66,9.3,-0.06,0.55,-0.57,-0.02,0.01,-0.21,2278,2019-04-03 15:55:07:034
0.61,2.07,9.61,0.05,0.89,-0.22,-0.03,0.0,-0.2,2283,2019-04-03 15:55:07:039
0.61,2.07,9.61,0.05,0.89,-0.22,-0.03,0.0,-0.2,2288,2019-04-03 15:55:07:044
0.61,2.07,9.61,0.05,0.89,-0.22,-0.03,0.0,-0.18,2292,2019-04-03 15:55:07:048
0.61,2.07,9.61,0.05,0.89,-0.22,-0.03,0.0,-0.18,2297,2019-04-03 15:55:07:053
0.61,2.07,9.61,0.05,0.89,-0.22,-0.03,0.0,-0.18,2302,2019-04-03 15:55:07:058
0.61,2.07,9.61,0.05,0.89,-0.22,-0.03,0.0,-0.18,2307,2019-04-03 15:55:07:063
0.52,2.26,9.7,-0.01,0.89,-0.11,-0.01,-0.01,-0.18,2320,2019-04-03 15:55:07:076
0.52,2.26,9.7,-0.01,0.89,-0.11,-0.01,-0.01,-0.18,2320,2019-04-03 15:55:07:076
0.52,2.26,9.7,-0.01,0.89,-0.11,-0.01,-0.01,-0.18,2324,2019-04-03 15:55:07:080
0.52,2.26,9.7,-0.01,0.89,-0.11,-0.01,-0.01,-0.18,2327,2019-04-03 15:55:07:083
0.84,1.94,9.6,0.27,0.48,-0.19,-0.01,-0.01,-0.17,2333,2019-04-03 15:55:07:089
0.84,1.94,9.6,0.27,0.48,-0.19,-0.01,-0.01,-0.17,2338,2019-04-03 15:55:07:094
0.84,1.94,9.6,0.27,0.48,-0.19,-0.01,-0.01,-0.17,2342,2019-04-03 15:55:07:098
0.84,1.94,9.6,0.27,0.48,-0.19,-0.01,-0.01,-0.17,2347,2019-04-03 15:55:07:103
0.8,1.68,10.27,0.18,0.12,0.4,-0.01,-0.02,-0.15,2353,2019-04-03 15:55:07:109
0.8,1.68,10.27,0.18,0.12,0.4,-0.01,-0.02,-0.15,2357,2019-04-03 15:55:07:113
0.8,1.68,10.27,0.18,0.12,0.4,-0.01,-0.02,-0.15,2362,2019-04-03 15:55:07:118
0.8,1.68,10.27,0.18,0.12,0.4,-0.01,-0.02,-0.15,2368,2019-04-03 15:55:07:124
0.8,1.68,10.27,0.18,0.12,0.4,-0.01,-0.02,-0.15,2372,2019-04-03 15:55:07:128
0.8,1.68,10.27,0.18,0.12,0.4,-0.01,-0.02,-0.15,2377,2019-04-03 15:55:07:133
0.08,1.74,9.72,-0.54,0.13,-0.15,-0.04,0.0,-0.12,2383,2019-04-03 15:55:07:139
0.08,1.74,9.72,-0.54,0.13,-0.15,-0.04,0.0,-0.12,2387,2019-04-03 15:55:07:143
0.08,1.74,9.72,-0.03,-0.02,0.05,-0.04,-0.03,-0.12,2392,2019-04-03 15:55:07:148
0.08,1.74,9.72,-0.03,-0.02,0.05,-0.04,-0.03,-0.12,2397,2019-04-03 15:55:07:153
0.08,1.74,9.72,-0.03,-0.02,0.05,-0.04,-0.03,-0.12,2402,2019-04-03 15:55:07:158
0.08,1.74,9.72,-0.03,-0.02,0.05,-0.04,-0.03,-0.12,2407,2019-04-03 15:55:07:163
0.55,1.2,9.67,-0.1,-0.47,-0.15,-0.02,0.0,-0.12,2413,2019-04-03 15:55:07:169
0.55,1.2,9.67,-0.1,-0.47,-0.15,-0.02,0.0,-0.12,2419,2019-04-03 15:55:07:175
0.55,1.2,9.67,-0.1,-0.47,-0.15,-0.02,0.0,-0.12,2422,2019-04-03 15:55:07:178
0.55,1.2,9.67,-0.1,-0.47,-0.15,-0.02,0.0,-0.12,2428,2019-04-03 15:55:07:184
0.55,1.2,9.67,-0.1,-0.47,-0.15,-0.02,0.0,-0.12,2434,2019-04-03 15:55:07:190
0.55,1.2,9.67,-0.1,-0.47,-0.15,-0.02,0.0,-0.12,2437,2019-04-03 15:55:07:193
0.96,2.27,9.97,0.34,0.53,0.13,0.0,0.02,-0.11,2442,2019-04-03 15:55:07:198
0.96,2.27,9.97,0.34,0.53,0.13,0.0,0.02,-0.11,2447,2019-04-03 15:55:07:203
0.96,2.27,9.97,2.1,1.42,0.89,-0.06,0.06,-0.11,2452,2019-04-03 15:55:07:208
0.96,2.27,9.97,2.1,1.42,0.89,-0.06,0.06,-0.11,2457,2019-04-03 15:55:07:213
0.96,2.27,9.97,2.1,1.42,0.89,-0.06,0.06,-0.11,2462,2019-04-03 15:55:07:218
0.96,2.27,9.97,2.1,1.42,0.89,-0.06,0.06,-0.11,2467,2019-04-03 15:55:07:223
0.96,2.27,9.97,2.1,1.42,0.89,-0.06,0.06,-0.11,2472,2019-04-03 15:55:07:228
0.96,2.27,9.97,2.1,1.42,0.89,-0.06,0.06,-0.11,2477,2019-04-03 15:55:07:233
-0.3,1.45,9.72,-0.89,-0.49,-0.38,0.0,-0.09,-0.15,2489,2019-04-03 15:55:07:245
-0.3,1.45,9.72,-0.89,-0.49,-0.38,0.0,-0.09,-0.15,2497,2019-04-03 15:55:07:253
-0.3,1.45,9.72,-0.89,-0.49,-0.38,0.0,-0.09,-0.15,2500,2019-04-03 15:55:07:256
-0.3,1.45,9.72,-0.89,-0.49,-0.38,0.0,-0.09,-0.15,2501,2019-04-03 15:55:07:257
-0.3,1.45,9.72,-0.89,-0.49,-0.38,0.0,-0.09,-0.15,2501,2019-04-03 15:55:07:257
-0.3,1.45,9.72,-0.89,-0.49,-0.38,0.0,-0.09,-0.15,2508,2019-04-03 15:55:07:264
-0.3,1.45,9.72,-0.89,-0.49,-0.38,0.0,-0.09,-0.15,2512,2019-04-03 15:55:07:268
2.0,2.78,10.39,1.28,0.86,0.53,-0.02,0.09,-0.06,2518,2019-04-03 15:55:07:274
2.0,2.78,10.39,1.28,0.86,0.53,-0.02,0.09,-0.06,2532,2019-04-03 15:55:07:288
2.0,2.78,10.39,1.28,0.86,0.53,-0.02,0.09,-0.06,2533,2019-04-03 15:55:07:289
2.0,2.78,10.39,1.28,0.86,0.53,-0.02,0.09,-0.06,2533,2019-04-03 15:55:07:289
2.0,2.78,10.39,1.28,0.86,0.53,-0.02,0.09,-0.06,2537,2019-04-03 15:55:07:293
2.0,2.78,10.39,1.28,0.86,0.53,-0.02,0.09,-0.06,2542,2019-04-03 15:55:07:298
2.0,2.78,10.39,1.28,0.86,0.53,-0.02,0.09,-0.06,2547,2019-04-03 15:55:07:303
2.0,2.78,10.39,1.28,0.86,0.53,-0.02,0.09,-0.06,2552,2019-04-03 15:55:07:308
2.0,2.78,10.39,1.28,0.86,0.53,-0.02,0.09,-0.06,2557,2019-04-03 15:55:07:313
-0.24,3.23,8.83,-0.99,1.08,-0.9,0.0,-0.01,0.01,2562,2019-04-03 15:55:07:318
-0.24,3.23,8.83,-0.99,1.08,-0.9,0.0,-0.01,0.01,2567,2019-04-03 15:55:07:323
-0.24,3.23,8.83,-0.99,1.08,-0.9,0.0,-0.01,0.01,2572,2019-04-03 15:55:07:328
-0.24,3.23,8.83,-0.99,1.08,-0.9,0.0,-0.01,0.01,2577,2019-04-03 15:55:07:333
2.33,2.08,11.72,1.41,-0.2,1.89,0.0,-0.03,0.06,2583,2019-04-03 15:55:07:339
2.33,2.08,11.72,1.41,-0.2,1.89,0.0,-0.03,0.06,2588,2019-04-03 15:55:07:344
2.33,2.08,11.72,1.41,-0.2,1.89,0.0,-0.03,0.06,2592,2019-04-03 15:55:07:348
2.33,2.08,11.72,1.41,-0.2,1.89,0.0,-0.03,0.06,2597,2019-04-03 15:55:07:353
-1.83,1.3,10.42,-2.63,-1.0,0.55,-0.06,0.12,0.16,2604,2019-04-03 15:55:07:360
-1.83,1.3,10.42,-2.63,-1.0,0.55,-0.06,0.12,0.16,2606,2019-04-03 15:55:07:362
-1.83,1.3,10.42,-2.63,-1.0,0.55,-0.06,0.12,0.16,2612,2019-04-03 15:55:07:368
-1.83,1.3,10.42,-2.63,-1.0,0.55,-0.06,0.12,0.16,2616,2019-04-03 15:55:07:372
-5.24,1.92,9.27,-5.88,-0.46,-0.57,0.0,-0.06,0.18,2622,2019-04-03 15:55:07:378
-5.24,1.92,9.27,-5.88,-0.46,-0.57,0.0,-0.06,0.18,2628,2019-04-03 15:55:07:384
-5.24,1.92,9.27,-5.88,-0.46,-0.57,0.0,-0.06,0.18,2632,2019-04-03 15:55:07:388
0.24,-0.36,12.29,-0.33,-2.59,2.23,-0.08,-0.1,0.13,2638,2019-04-03 15:55:07:394
0.24,-0.36,12.29,-0.33,-2.59,2.23,-0.08,-0.1,0.13,2642,2019-04-03 15:55:07:398
0.24,-0.36,12.29,-0.33,-2.59,2.23,-0.08,-0.1,0.13,2647,2019-04-03 15:55:07:403
0.24,-0.36,12.29,-0.33,-2.59,2.23,-0.08,-0.1,0.13,2652,2019-04-03 15:55:07:408
0.24,-0.36,12.29,-0.33,-2.59,2.23,-0.08,-0.1,0.13,2657,2019-04-03 15:55:07:413
0.24,-0.36,12.29,-0.33,-2.59,2.23,-0.08,-0.1,0.13,2662,2019-04-03 15:55:07:418
1.28,2.23,11.64,0.73,0.08,1.67,-0.04,0.16,0.18,2667,2019-04-03 15:55:07:423
1.28,2.23,11.64,0.73,0.08,1.67,-0.04,0.16,0.18,2672,2019-04-03 15:55:07:428
-0.82,0.44,8.11,-1.18,-1.48,-1.79,-0.24,0.1,0.15,2678,2019-04-03 15:55:07:434
-0.82,0.44,8.11,-1.18,-1.48,-1.79,-0.24,0.1,0.15,2685,2019-04-03 15:55:07:441
-0.82,0.44,8.11,-1.18,-1.48,-1.79,-0.24,0.1,0.15,2687,2019-04-03 15:55:07:443
-0.82,0.44,8.11,2.94,-2.43,0.41,-0.17,-0.09,0.11,2691,2019-04-03 15:55:07:447
-0.82,0.44,8.11,2.94,-2.43,0.41,-0.17,-0.09,0.11,2697,2019-04-03 15:55:07:453
-0.82,0.44,8.11,2.94,-2.43,0.41,-0.17,-0.09,0.11,2702,2019-04-03 15:55:07:458
-0.82,0.44,8.11,2.94,-2.43,0.41,-0.17,-0.09,0.11,2707,2019-04-03 15:55:07:463
0.57,0.64,9.4,0.06,-0.87,-0.51,-0.07,-0.2,0.05,2715,2019-04-03 15:55:07:471
0.57,0.64,9.4,0.06,-0.87,-0.51,-0.07,-0.2,0.05,2717,2019-04-03 15:55:07:473
0.57,0.64,9.4,0.06,-0.87,-0.51,-0.07,-0.2,0.05,2722,2019-04-03 15:55:07:478
0.57,0.64,9.4,0.06,-0.87,-0.51,-0.07,-0.2,0.05,2728,2019-04-03 15:55:07:484
0.57,0.64,9.4,0.06,-0.87,-0.51,-0.07,-0.2,0.05,2732,2019-04-03 15:55:07:488
3.44,2.36,13.66,2.97,0.96,3.53,-0.14,0.16,0.1,2737,2019-04-03 15:55:07:493
3.44,2.36,13.66,2.97,0.96,3.53,-0.14,0.16,0.1,2742,2019-04-03 15:55:07:498
3.44,2.36,13.66,2.97,0.96,3.53,-0.14,0.16,0.1,2747,2019-04-03 15:55:07:503
3.44,2.36,13.66,2.97,0.96,3.53,-0.14,0.16,0.1,2752,2019-04-03 15:55:07:508
1.8,9.81,9.8,1.64,8.07,-0.39,-0.09,0.31,0.07,2758,2019-04-03 15:55:07:514
1.8,9.81,9.8,1.64,8.07,-0.39,-0.09,0.31,0.07,2762,2019-04-03 15:55:07:518
-4.22,-1.2,10.19,-4.07,-2.62,0.09,-0.14,-0.14,-0.03,2771,2019-04-03 15:55:07:527
-4.22,-1.2,10.19,-4.07,-2.62,0.09,-0.14,-0.14,-0.03,2775,2019-04-03 15:55:07:531
-4.22,-1.2,10.19,-4.07,-2.62,0.09,-0.14,-0.14,-0.03,2778,2019-04-03 15:55:07:534
-4.22,-1.2,10.19,-4.07,-2.62,0.09,-0.14,-0.14,-0.03,2782,2019-04-03 15:55:07:538
-4.22,-1.2,10.19,-4.07,-2.62,0.09,-0.14,-0.14,-0.03,2787,2019-04-03 15:55:07:543
-4.22,-1.2,10.19,-4.07,-2.62,0.09,-0.14,-0.14,-0.03,2792,2019-04-03 15:55:07:548
-4.22,-1.2,10.19,-4.07,-2.62,0.09,-0.14,-0.14,-0.03,2799,2019-04-03 15:55:07:555
4.59,1.48,5.57,4.59,0.44,-4.27,-0.29,-0.06,-0.02,2802,2019-04-03 15:55:07:558
4.59,1.48,5.57,4.59,0.44,-4.27,-0.29,-0.06,-0.02,2807,2019-04-03 15:55:07:563
4.59,1.48,5.57,4.59,0.44,-4.27,-0.29,-0.06,-0.02,2812,2019-04-03 15:55:07:568
2.61,-1.93,19.83,4.59,0.44,-4.27,-0.29,-0.06,-0.02,2818,2019-04-03 15:55:07:574
2.61,-1.93,19.83,2.44,-2.94,9.57,0.03,0.08,0.0,2823,2019-04-03 15:55:07:579
2.61,-1.93,19.83,2.44,-2.94,9.57,0.03,0.08,0.0,2826,2019-04-03 15:55:07:582
2.61,-1.93,19.83,2.44,-2.94,9.57,0.03,0.08,0.0,2831,2019-04-03 15:55:07:587
2.61,-1.93,19.83,2.44,-2.94,9.57,0.03,0.08,0.0,2836,2019-04-03 15:55:07:592
-1.9,7.13,4.7,-2.07,5.41,-4.93,0.46,0.1,0.0,2842,2019-04-03 15:55:07:598
-1.9,7.13,4.7,-2.07,5.41,-4.93,0.46,0.1,0.0,2848,2019-04-03 15:55:07:604
0.3,-4.36,6.03,-0.15,-5.11,-3.52,-0.7,-0.2,-0.05,2852,2019-04-03 15:55:07:608
0.3,-4.36,6.03,-0.15,-5.11,-3.52,-0.7,-0.2,-0.05,2858,2019-04-03 15:55:07:614
0.3,-4.36,6.03,-0.15,-5.11,-3.52,-0.7,-0.2,-0.05,2863,2019-04-03 15:55:07:619
0.3,-4.36,6.03,-0.15,-5.11,-3.52,-0.7,-0.2,-0.05,2868,2019-04-03 15:55:07:624
0.3,-4.36,6.03,-0.15,-5.11,-3.52,-0.7,-0.2,-0.05,2873,2019-04-03 15:55:07:629
0.3,-4.36,6.03,-0.15,-5.11,-3.52,-0.7,-0.2,-0.05,2876,2019-04-03 15:55:07:632
3.81,-3.3,8.28,3.26,-4.21,-0.64,0.34,0.17,-0.03,2882,2019-04-03 15:55:07:638
3.81,-3.3,8.28,3.26,-4.21,-0.64,0.34,0.17,-0.03,2888,2019-04-03 15:55:07:644
3.81,-3.3,8.28,3.26,-4.21,-0.64,0.34,0.17,-0.03,2892,2019-04-03 15:55:07:648
3.81,-3.3,8.28,3.26,-4.21,-0.64,0.34,0.17,-0.03,2897,2019-04-03 15:55:07:653
3.81,-3.3,8.28,3.26,-4.21,-0.64,0.34,0.17,-0.03,2902,2019-04-03 15:55:07:658
3.81,-3.3,8.28,3.26,-4.21,-0.64,0.34,0.17,-0.03,2907,2019-04-03 15:55:07:663
3.81,-3.3,8.28,3.26,-4.21,-0.64,0.34,0.17,-0.03,2912,2019-04-03 15:55:07:668
3.81,-3.3,8.28,3.26,-4.21,-0.64,0.34,0.17,-0.03,2917,2019-04-03 15:55:07:673
5.53,-1.76,11.9,5.04,-2.7,2.64,-0.34,-0.17,-0.03,2933,2019-04-03 15:55:07:689
5.53,-1.76,11.9,5.04,-2.7,2.64,-0.34,-0.17,-0.03,2934,2019-04-03 15:55:07:690
5.53,-1.76,11.9,5.04,-2.7,2.64,-0.34,-0.17,-0.03,2935,2019-04-03 15:55:07:691
5.53,-1.76,11.9,5.04,-2.7,2.64,-0.34,-0.17,-0.03,2945,2019-04-03 15:55:07:701
5.53,-1.76,11.9,5.04,-2.7,2.64,-0.34,-0.17,-0.03,2946,2019-04-03 15:55:07:702
5.53,-1.76,11.9,5.04,-2.7,2.64,-0.34,-0.17,-0.03,2947,2019-04-03 15:55:07:703
1.09,-0.32,10.08,0.43,-1.34,1.26,-0.15,-0.1,0.06,2957,2019-04-03 15:55:07:713
1.09,-0.32,10.08,0.43,-1.34,1.26,-0.15,-0.1,0.06,2957,2019-04-03 15:55:07:713
1.09,-0.32,10.08,0.43,-1.34,1.26,-0.15,-0.1,0.06,2971,2019-04-03 15:55:07:727
1.09,-0.32,10.08,0.43,-1.34,1.26,-0.15,-0.1,0.06,2972,2019-04-03 15:55:07:728
1.09,-0.32,10.08,0.43,-1.34,1.26,-0.15,-0.1,0.06,2972,2019-04-03 15:55:07:728
-0.84,-2.14,10.04,-1.62,-3.2,1.22,0.0,0.04,0.04,2980,2019-04-03 15:55:07:736
-0.84,-2.14,10.04,-1.62,-3.2,1.22,0.0,0.04,0.04,2987,2019-04-03 15:55:07:743
-0.84,-2.14,10.04,-1.62,-3.2,1.22,0.0,0.04,0.04,2987,2019-04-03 15:55:07:743
-0.84,-2.14,10.04,-1.62,-3.2,1.22,0.0,0.04,0.04,2992,2019-04-03 15:55:07:748
-0.84,-2.14,10.04,-1.62,-3.2,1.22,0.0,0.04,0.04,2999,2019-04-03 15:55:07:755
-6.9,7.05,-1.82,-7.21,5.2,-10.26,0.44,0.07,0.01,3003,2019-04-03 15:55:07:759
-6.9,7.05,-1.82,-7.21,5.2,-10.26,0.44,0.07,0.01,3008,2019-04-03 15:55:07:764
-6.9,7.05,-1.82,-7.21,5.2,-10.26,-0.3,0.09,-0.03,3012,2019-04-03 15:55:07:768
-12.09,4.03,15.19,17.03,-1.24,21.36,-0.3,0.09,-0.03,3017,2019-04-03 15:55:07:773
-12.09,4.03,15.19,17.03,-1.24,21.36,-0.3,0.09,-0.03,3023,2019-04-03 15:55:07:779
-12.09,4.03,15.19,17.03,-1.24,21.36,-0.3,0.09,-0.03,3026,2019-04-03 15:55:07:782
-10.17,4.82,29.5,-9.96,3.47,18.58,0.57,1.1,0.12,3032,2019-04-03 15:55:07:788
-10.17,4.82,29.5,-9.96,3.47,18.58,0.57,1.1,0.12,3038,2019-04-03 15:55:07:794
-10.17,4.82,29.5,-9.96,3.47,18.58,0.57,1.1,0.12,3042,2019-04-03 15:55:07:798
-10.17,4.82,29.5,-9.96,3.47,18.58,0.57,1.1,0.12,3047,2019-04-03 15:55:07:803
7.39,3.65,11.95,6.95,1.21,0.44,0.02,-0.71,-0.26,3052,2019-04-03 15:55:07:808
7.39,3.65,11.95,6.95,1.21,0.44,0.02,-0.71,-0.26,3057,2019-04-03 15:55:07:813
7.39,3.65,11.95,6.95,1.21,0.44,0.02,-0.71,-0.26,3062,2019-04-03 15:55:07:818
-0.8,-3.04,-0.65,-0.89,-5.18,-11.67,-0.03,0.44,0.09,3068,2019-04-03 15:55:07:824
-0.8,-3.04,-0.65,-0.89,-5.18,-11.67,-0.03,0.44,0.09,3072,2019-04-03 15:55:07:828
-0.8,-3.04,-0.65,-0.89,-5.18,-11.67,-0.03,0.44,0.09,3077,2019-04-03 15:55:07:833
-0.8,-3.04,-0.65,-0.89,-5.18,-11.67,-0.03,0.44,0.09,3082,2019-04-03 15:55:07:838
-0.8,-3.04,-0.65,-0.89,-5.18,-11.67,-0.03,0.44,0.09,3087,2019-04-03 15:55:07:843
0.82,0.59,10.19,0.48,-1.46,-0.35,0.34,-0.15,-0.08,3091,2019-04-03 15:55:07:847
0.82,0.59,10.19,0.48,-1.46,-0.35,0.34,-0.15,-0.08,3096,2019-04-03 15:55:07:852
0.82,0.59,10.19,0.48,-1.46,-0.35,0.34,-0.15,-0.08,3103,2019-04-03 15:55:07:859
0.82,0.59,10.19,0.48,-1.46,-0.35,0.34,-0.15,-0.08,3107,2019-04-03 15:55:07:863
0.82,0.59,10.19,0.48,-1.46,-0.35,0.34,-0.15,-0.08,3112,2019-04-03 15:55:07:868
0.82,0.59,10.19,0.48,-1.46,-0.35,0.34,-0.15,-0.08,3117,2019-04-03 15:55:07:873
9.75,-4.48,22.0,9.39,-6.17,10.57,-0.04,0.12,-0.02,3122,2019-04-03 15:55:07:878
9.75,-4.48,22.0,9.39,-6.17,10.57,-0.04,0.12,-0.02,3128,2019-04-03 15:55:07:884
-6.87,4.38,3.6,9.39,-6.17,10.57,0.31,0.6,0.02,3133,2019-04-03 15:55:07:889
-6.87,4.38,3.6,9.39,-6.17,10.57,0.31,0.6,0.02,3137,2019-04-03 15:55:07:893
-6.87,4.38,3.6,9.39,-6.17,10.57,0.31,0.6,0.02,3142,2019-04-03 15:55:07:898
-6.87,4.38,3.6,9.39,-6.17,10.57,0.31,0.6,0.02,3147,2019-04-03 15:55:07:903
-9.9,-2.04,15.48,-10.1,-3.29,3.57,-0.14,-1.0,-0.12,3153,2019-04-03 15:55:07:909
-9.9,-2.04,15.48,-10.1,-3.29,3.57,-0.14,-1.0,-0.12,3157,2019-04-03 15:55:07:913
-9.9,-2.04,15.48,-10.1,-3.29,3.57,-0.14,-1.0,-0.12,3162,2019-04-03 15:55:07:918
-9.9,-2.04,15.48,-10.1,-3.29,3.57,-0.14,-1.0,-0.12,3168,2019-04-03 15:55:07:924
7.71,1.59,19.27,7.28,0.33,7.3,-0.06,-0.21,0.07,3172,2019-04-03 15:55:07:928
7.71,1.59,19.27,7.28,0.33,7.3,-0.06,-0.21,0.07,3178,2019-04-03 15:55:07:934
7.71,1.59,19.27,7.28,0.33,7.3,-0.06,-0.21,0.07,3183,2019-04-03 15:55:07:939
7.71,1.59,19.27,7.28,0.33,7.3,-0.06,-0.21,0.07,3188,2019-04-03 15:55:07:944
7.12,-6.48,11.17,6.38,-6.61,-1.3,-0.28,0.58,0.2,3192,2019-04-03 15:55:07:948
7.12,-6.48,11.17,6.38,-6.61,-1.3,-0.28,0.58,0.2,3198,2019-04-03 15:55:07:954
7.12,-6.48,11.17,6.38,-6.61,-1.3,-0.28,0.58,0.2,3205,2019-04-03 15:55:07:961
7.12,-6.48,11.17,6.38,-6.61,-1.3,-0.28,0.58,0.2,3208,2019-04-03 15:55:07:964
7.12,-6.48,11.17,6.38,-6.61,-1.3,-0.28,0.58,0.2,3216,2019-04-03 15:55:07:972
7.12,-6.48,11.17,6.38,-6.61,-1.3,-0.28,0.58,0.2,3216,2019-04-03 15:55:07:972
7.12,-6.48,11.17,6.38,-6.61,-1.3,-0.28,0.58,0.2,3222,2019-04-03 15:55:07:978
2.69,-7.87,10.11,2.69,-7.7,-0.82,0.3,0.1,0.13,3230,2019-04-03 15:55:07:986
2.69,-7.87,10.11,2.69,-7.7,-0.82,0.3,0.1,0.13,3232,2019-04-03 15:55:07:988
2.69,-7.87,10.11,2.69,-7.7,-0.82,0.3,0.1,0.13,3236,2019-04-03 15:55:07:992
2.69,-7.87,10.11,2.69,-7.7,-0.82,0.3,0.1,0.13,3243,2019-04-03 15:55:07:999
2.69,-7.87,10.11,2.69,-7.7,-0.82,0.3,0.1,0.13,3247,2019-04-03 15:55:08:003
2.69,-7.87,10.11,2.69,-7.7,-0.82,0.3,0.1,0.13,3254,2019-04-03 15:55:08:010
2.69,-7.87,10.11,2.69,-7.7,-0.82,0.3,0.1,0.13,3256,2019-04-03 15:55:08:012
-2.48,-1.43,8.43,2.69,-7.7,-0.82,0.3,0.1,0.13,3262,2019-04-03 15:55:08:018
-2.48,-1.43,8.43,-2.54,0.24,-0.61,-0.17,-0.33,-0.08,3268,2019-04-03 15:55:08:024
-2.48,-1.43,8.43,-2.54,0.24,-0.61,-0.17,-0.33,-0.08,3272,2019-04-03 15:55:08:028
-2.48,-1.43,8.43,-2.54,0.24,-0.61,-0.17,-0.33,-0.08,3277,2019-04-03 15:55:08:033
-2.48,-1.43,8.43,-2.54,0.24,-0.61,-0.17,-0.33,-0.08,3282,2019-04-03 15:55:08:038
-2.48,-1.43,8.43,-2.54,0.24,-0.61,-0.17,-0.33,-0.08,3287,2019-04-03 15:55:08:043
-0.11,0.71,10.03,-0.87,1.44,0.05,-0.23,0.43,0.33,3292,2019-04-03 15:55:08:048
-0.11,0.71,10.03,-0.87,1.44,0.05,-0.23,0.43,0.33,3297,2019-04-03 15:55:08:053
-0.11,0.71,10.03,-0.87,1.44,0.05,-0.23,0.43,0.33,3302,2019-04-03 15:55:08:058
-0.11,0.71,10.03,-0.87,1.44,0.05,-0.23,0.43,0.33,3307,2019-04-03 15:55:08:063
-0.11,0.71,10.03,-0.87,1.44,0.05,-0.23,0.43,0.33,3312,2019-04-03 15:55:08:068
-3.41,-2.13,11.92,-3.46,-1.83,2.83,0.0,0.08,0.13,3319,2019-04-03 15:55:08:075
-3.41,-2.13,11.92,-3.46,-1.83,2.83,0.0,0.08,0.13,3322,2019-04-03 15:55:08:078
-3.41,-2.13,11.92,-3.46,-1.83,2.83,0.0,0.08,0.13,3328,2019-04-03 15:55:08:084
-0.2,3.77,10.7,-1.01,4.13,0.87,0.0,-0.32,-0.06,3332,2019-04-03 15:55:08:088
-0.2,3.77,10.7,-1.01,4.13,0.87,0.0,-0.32,-0.06,3338,2019-04-03 15:55:08:094
-0.2,3.77,10.7,-1.01,4.13,0.87,0.0,-0.32,-0.06,3342,2019-04-03 15:55:08:098
-0.2,3.77,10.7,-1.01,4.13,0.87,0.0,-0.32,-0.06,3347,2019-04-03 15:55:08:103
8.28,-5.85,10.44,7.53,-5.09,1.78,0.01,0.06,0.1,3352,2019-04-03 15:55:08:108
8.28,-5.85,10.44,7.53,-5.09,1.78,0.01,0.06,0.1,3358,2019-04-03 15:55:08:114
8.28,-5.85,10.44,7.53,-5.09,1.78,0.01,0.06,0.1,3362,2019-04-03 15:55:08:118
1.95,2.27,11.53,7.53,-5.09,1.78,0.37,0.49,0.12,3367,2019-04-03 15:55:08:123
1.95,2.27,11.53,1.79,2.86,3.11,0.37,0.49,0.12,3373,2019-04-03 15:55:08:129
1.95,2.27,11.53,1.79,2.86,3.11,0.37,0.49,0.12,3378,2019-04-03 15:55:08:134
1.95,2.27,11.53,1.79,2.86,3.11,0.37,0.49,0.12,3383,2019-04-03 15:55:08:139
1.95,2.27,11.53,1.79,2.86,3.11,0.37,0.49,0.12,3387,2019-04-03 15:55:08:143
1.95,2.27,11.53,1.79,2.86,3.11,0.37,0.49,0.12,3392,2019-04-03 15:55:08:148
1.95,2.27,11.53,1.79,2.86,3.11,0.37,0.49,0.12,3397,2019-04-03 15:55:08:153
-5.65,4.24,5.08,-5.75,4.13,-3.62,-0.16,-0.17,-0.02,3404,2019-04-03 15:55:08:160
-5.65,4.24,5.08,-5.75,4.13,-3.62,-0.16,-0.17,-0.02,3408,2019-04-03 15:55:08:164
-5.65,4.24,5.08,-5.75,4.13,-3.62,-0.16,-0.17,-0.02,3412,2019-04-03 15:55:08:168
-5.65,4.24,5.08,-5.75,4.13,-3.62,-0.16,-0.17,-0.02,3417,2019-04-03 15:55:08:173
-1.77,-0.62,5.92,-2.17,-1.25,-3.08,0.0,-0.48,-0.12,3423,2019-04-03 15:55:08:179
-1.77,-0.62,5.92,-2.17,-1.25,-3.08,0.0,-0.48,-0.12,3429,2019-04-03 15:55:08:185
-0.74,2.21,10.33,-2.17,-1.25,-3.08,0.18,-0.19,-0.08,3432,2019-04-03 15:55:08:188
-0.74,2.21,10.33,-3.51,-0.25,-3.57,0.18,-0.19,-0.08,3437,2019-04-03 15:55:08:193
-0.74,2.21,10.33,-3.51,-0.25,-3.57,0.18,-0.19,-0.08,3442,2019-04-03 15:55:08:198
-0.74,2.21,10.33,-3.51,-0.25,-3.57,0.18,-0.19,-0.08,3446,2019-04-03 15:55:08:202
8.2,0.58,14.71,7.14,-0.98,5.55,-0.03,0.13,-0.02,3452,2019-04-03 15:55:08:208
8.2,0.58,14.71,7.14,-0.98,5.55,-0.03,0.13,-0.02,3457,2019-04-03 15:55:08:213
8.2,0.58,14.71,7.14,-0.98,5.55,-0.03,0.13,-0.02,3463,2019-04-03 15:55:08:219
8.2,0.58,14.71,7.14,-0.98,5.55,-0.03,0.13,-0.02,3467,2019-04-03 15:55:08:223
8.2,0.58,14.71,7.14,-0.98,5.55,-0.03,0.13,-0.02,3473,2019-04-03 15:55:08:229
8.2,0.58,14.71,7.14,-0.98,5.55,-0.03,0.13,-0.02,3477,2019-04-03 15:55:08:233
-0.48,1.43,1.03,-0.38,0.67,-7.97,-0.29,0.48,0.05,3483,2019-04-03 15:55:08:239
-0.48,1.43,1.03,-0.38,0.67,-7.97,-0.29,0.48,0.05,3490,2019-04-03 15:55:08:246
-0.48,1.43,1.03,-0.38,0.67,-7.97,-0.29,0.48,0.05,3492,2019-04-03 15:55:08:248
-2.07,-2.76,7.19,-2.49,-3.26,-2.07,-0.21,-0.38,-0.16,3500,2019-04-03 15:55:08:256
-2.07,-2.76,7.19,-2.49,-3.26,-2.07,-0.21,-0.38,-0.16,3502,2019-04-03 15:55:08:258
-2.07,-2.76,7.19,-2.49,-3.26,-2.07,-0.21,-0.38,-0.16,3507,2019-04-03 15:55:08:263
-2.07,-2.76,7.19,-2.49,-3.26,-2.07,-0.21,-0.38,-0.16,3513,2019-04-03 15:55:08:269
-2.07,-2.76,7.19,-2.49,-3.26,-2.07,-0.21,-0.38,-0.16,3517,2019-04-03 15:55:08:273
7.97,4.13,1.92,-2.49,-3.26,-2.07,-0.21,-0.38,-0.16,3522,2019-04-03 15:55:08:278
7.97,4.13,1.92,6.79,3.37,-6.95,0.22,-0.15,-0.17,3528,2019-04-03 15:55:08:284
7.97,4.13,1.92,6.79,3.37,-6.95,0.22,-0.15,-0.17,3531,2019-04-03 15:55:08:287
8.53,1.39,8.48,6.79,3.37,-6.95,-0.26,0.54,-0.08,3537,2019-04-03 15:55:08:293
8.53,1.39,8.48,6.79,3.37,-6.95,-0.26,0.54,-0.08,3542,2019-04-03 15:55:08:298
8.53,1.39,8.48,6.79,3.37,-6.95,-0.26,0.54,-0.08,3547,2019-04-03 15:55:08:303
8.53,1.39,8.48,6.79,3.37,-6.95,-0.26,0.54,-0.08,3552,2019-04-03 15:55:08:308
8.53,1.39,8.48,6.79,3.37,-6.95,-0.26,0.54,-0.08,3557,2019-04-03 15:55:08:313
-5.24,3.3,6.0,-5.77,2.17,-2.11,-0.07,0.23,-0.11,3563,2019-04-03 15:55:08:319
-5.24,3.3,6.0,-5.77,2.17,-2.11,-0.07,0.23,-0.11,3568,2019-04-03 15:55:08:324
3.27,6.15,8.46,-5.77,2.17,-2.11,-0.08,0.46,-0.03,3572,2019-04-03 15:55:08:328
3.27,6.15,8.46,2.37,4.77,0.57,-0.08,0.46,-0.03,3577,2019-04-03 15:55:08:333
3.27,6.15,8.46,2.37,4.77,0.57,0.04,-0.21,-0.09,3582,2019-04-03 15:55:08:338
3.27,6.15,8.46,2.37,4.77,0.57,0.04,-0.21,-0.09,3587,2019-04-03 15:55:08:343
3.27,6.15,8.46,2.37,4.77,0.57,0.04,-0.21,-0.09,3592,2019-04-03 15:55:08:348
3.27,6.15,8.46,2.37,4.77,0.57,0.04,-0.21,-0.09,3597,2019-04-03 15:55:08:353
3.27,6.15,8.46,2.37,4.77,0.57,0.04,-0.21,-0.09,3602,2019-04-03 15:55:08:358
3.27,6.15,8.46,2.37,4.77,0.57,0.04,-0.21,-0.09,3607,2019-04-03 15:55:08:363
4.49,1.57,7.82,3.23,0.64,-0.4,-0.18,0.13,0.06,3612,2019-04-03 15:55:08:368
4.49,1.57,7.82,3.23,0.64,-0.4,-0.18,0.13,0.06,3617,2019-04-03 15:55:08:373
-5.31,5.17,11.4,3.23,0.64,-0.4,-0.2,0.19,0.16,3622,2019-04-03 15:55:08:378
-5.31,5.17,11.4,-6.51,4.36,3.39,-0.2,0.19,0.16,3627,2019-04-03 15:55:08:383
-5.31,5.17,11.4,-6.51,4.36,3.39,-0.2,0.19,0.16,3632,2019-04-03 15:55:08:388
-5.31,5.17,11.4,-6.51,4.36,3.39,-0.2,0.19,0.16,3637,2019-04-03 15:55:08:393
-5.31,5.17,11.4,-6.51,4.36,3.39,-0.2,0.19,0.16,3642,2019-04-03 15:55:08:398
-5.31,5.17,11.4,-6.51,4.36,3.39,-0.2,0.19,0.16,3647,2019-04-03 15:55:08:403
5.17,4.77,29.87,4.14,3.75,21.1,-0.05,0.32,0.23,3652,2019-04-03 15:55:08:408
5.17,4.77,29.87,4.14,3.75,21.1,-0.05,0.32,0.23,3658,2019-04-03 15:55:08:414
5.17,4.77,29.87,4.14,3.75,21.1,0.23,0.17,0.34,3663,2019-04-03 15:55:08:419
12.99,-3.95,20.51,-10.91,3.44,-5.0,0.23,0.17,0.34,3667,2019-04-03 15:55:08:423
12.99,-3.95,20.51,-10.91,3.44,-5.0,0.23,0.17,0.34,3673,2019-04-03 15:55:08:429
12.99,-3.95,20.51,-10.91,3.44,-5.0,0.23,0.17,0.34,3678,2019-04-03 15:55:08:434
12.99,-3.95,20.51,-10.91,3.44,-5.0,0.23,0.17,0.34,3682,2019-04-03 15:55:08:438
12.99,-3.95,20.51,-10.91,3.44,-5.0,0.23,0.17,0.34,3688,2019-04-03 15:55:08:444
-10.73,-0.45,-2.88,-10.91,3.44,-5.0,-0.35,-0.73,0.24,3692,2019-04-03 15:55:08:448
-10.73,-0.45,-2.88,-11.59,-2.46,-12.12,-0.35,-0.73,0.24,3697,2019-04-03 15:55:08:453
-10.73,-0.45,-2.88,-11.59,-2.46,-12.12,-0.33,0.22,0.05,3702,2019-04-03 15:55:08:458
-10.73,-0.45,-2.88,-11.59,-2.46,-12.12,-0.33,0.22,0.05,3707,2019-04-03 15:55:08:463
-10.73,-0.45,-2.88,-11.59,-2.46,-12.12,-0.33,0.22,0.05,3713,2019-04-03 15:55:08:469
-10.73,-0.45,-2.88,-11.59,-2.46,-12.12,-0.33,0.22,0.05,3716,2019-04-03 15:55:08:472
4.19,4.31,13.95,3.63,1.98,3.87,0.03,0.35,0.15,3723,2019-04-03 15:55:08:479
4.19,4.31,13.95,3.63,1.98,3.87,0.03,0.35,0.15,3727,2019-04-03 15:55:08:483
4.19,4.31,13.95,3.63,1.98,3.87,0.03,0.35,0.15,3732,2019-04-03 15:55:08:488
4.19,4.31,13.95,3.63,1.98,3.87,0.03,0.35,0.15,3738,2019-04-03 15:55:08:494
-2.9,0.03,12.7,-3.33,-2.11,1.74,-0.14,0.45,0.13,3742,2019-04-03 15:55:08:498
-2.9,0.03,12.7,-3.33,-2.11,1.74,-0.14,0.45,0.13,3747,2019-04-03 15:55:08:503
-2.9,0.03,12.7,-3.33,-2.11,1.74,-0.14,0.45,0.13,3752,2019-04-03 15:55:08:508
-2.9,0.03,12.7,-3.33,-2.11,1.74,-0.14,0.45,0.13,3757,2019-04-03 15:55:08:513
-2.9,0.03,12.7,-3.33,-2.11,1.74,-0.14,0.45,0.13,3762,2019-04-03 15:55:08:518
-2.9,0.03,12.7,-3.33,-2.11,1.74,-0.14,0.45,0.13,3767,2019-04-03 15:55:08:523
-1.81,-3.86,13.41,-2.13,-5.81,2.3,0.05,-0.06,-0.03,3772,2019-04-03 15:55:08:528
-1.81,-3.86,13.41,-2.13,-5.81,2.3,0.05,-0.06,-0.03,3777,2019-04-03 15:55:08:533
-3.61,5.27,14.98,-2.13,-5.81,2.3,0.02,0.05,-0.12,3783,2019-04-03 15:55:08:539
-3.61,5.27,14.98,6.08,2.07,3.71,0.02,0.05,-0.12,3787,2019-04-03 15:55:08:543
-3.61,5.27,14.98,6.08,2.07,3.71,0.02,0.05,-0.12,3792,2019-04-03 15:55:08:548
-3.61,5.27,14.98,6.08,2.07,3.71,0.02,0.05,-0.12,3797,2019-04-03 15:55:08:553
-3.61,5.27,14.98,6.08,2.07,3.71,0.02,0.05,-0.12,3802,2019-04-03 15:55:08:558
-0.8,3.14,19.82,-0.65,0.82,8.12,-0.05,-0.33,-0.25,3807,2019-04-03 15:55:08:563
-0.8,3.14,19.82,-0.65,0.82,8.12,-0.05,-0.33,-0.25,3812,2019-04-03 15:55:08:568
-0.8,3.14,19.82,-0.65,0.82,8.12,-0.05,-0.33,-0.25,3817,2019-04-03 15:55:08:573
0.34,-0.02,10.41,0.7,-2.65,-2.08,0.3,-0.06,-0.09,3822,2019-04-03 15:55:08:578
0.34,-0.02,10.41,0.7,-2.65,-2.08,0.3,-0.06,-0.09,3828,2019-04-03 15:55:08:584
0.34,-0.02,10.41,0.7,-2.65,-2.08,0.3,-0.06,-0.09,3832,2019-04-03 15:55:08:588
0.34,-0.02,10.41,0.7,-2.65,-2.08,0.3,-0.06,-0.09,3837,2019-04-03 15:55:08:593
0.34,-0.02,10.41,0.7,-2.65,-2.08,0.3,-0.06,-0.09,3842,2019-04-03 15:55:08:598
0.34,-0.02,10.41,0.7,-2.65,-2.08,0.3,-0.06,-0.09,3847,2019-04-03 15:55:08:603
-5.62,0.45,7.16,0.7,-2.65,-2.08,-0.04,-0.17,-0.09,3852,2019-04-03 15:55:08:608
-5.62,0.45,7.16,-5.19,-1.53,-4.08,-0.04,-0.17,-0.09,3857,2019-04-03 15:55:08:613
-5.62,0.45,7.16,-5.19,-1.53,-4.08,-0.05,-0.21,-0.11,3862,2019-04-03 15:55:08:618
-7.6,-0.56,6.01,-5.19,-1.53,-4.08,-0.05,-0.21,-0.11,3866,2019-04-03 15:55:08:622
-7.6,-0.56,6.01,-5.19,-1.53,-4.08,-0.05,-0.21,-0.11,3873,2019-04-03 15:55:08:629
-7.6,-0.56,6.01,-5.19,-1.53,-4.08,-0.05,-0.21,-0.11,3877,2019-04-03 15:55:08:633
-7.6,-0.56,5.63,-5.19,-1.53,-4.08,-0.05,-0.21,0.07,3882,2019-04-03 15:55:08:638
-0.54,3.13,5.63,-0.37,1.98,-5.66,0.14,0.55,0.07,3887,2019-04-03 15:55:08:643
-0.54,3.13,5.63,-0.37,1.98,-5.66,0.14,0.55,0.07,3893,2019-04-03 15:55:08:649
-0.54,3.13,5.63,-0.37,1.98,-5.66,0.14,0.55,0.07,3897,2019-04-03 15:55:08:653
-7.32,2.02,7.84,-0.37,1.98,-5.66,0.14,0.55,0.07,3902,2019-04-03 15:55:08:658
-7.32,2.02,7.84,-7.22,1.12,-3.26,-0.38,-0.64,-0.2,3908,2019-04-03 15:55:08:664
-7.32,2.02,7.84,-7.22,1.12,-3.26,-0.38,-0.64,-0.2,3912,2019-04-03 15:55:08:668
-7.32,2.02,7.84,-7.22,1.12,-3.26,-0.38,-0.64,-0.2,3918,2019-04-03 15:55:08:674
10.07,1.26,20.52,9.75,0.36,9.28,0.49,-0.26,-0.09,3922,2019-04-03 15:55:08:678
10.07,1.26,20.52,9.75,0.36,9.28,0.49,-0.26,-0.09,3927,2019-04-03 15:55:08:683
10.07,1.26,20.52,9.75,0.36,9.28,0.49,-0.26,-0.09,3932,2019-04-03 15:55:08:688
10.07,1.26,20.52,9.75,0.36,9.28,0.49,-0.26,-0.09,3937,2019-04-03 15:55:08:693
10.07,1.26,20.52,9.75,0.36,9.28,0.49,-0.26,-0.09,3942,2019-04-03 15:55:08:698
10.07,1.26,20.52,9.75,0.36,9.28,0.49,-0.26,-0.09,3947,2019-04-03 15:55:08:703
9.41,3.16,12.57,9.09,2.28,1.72,0.17,0.76,0.08,3952,2019-04-03 15:55:08:708
9.41,3.16,12.57,9.09,2.28,1.72,0.17,0.76,0.08,3957,2019-04-03 15:55:08:713
9.41,3.16,12.57,9.09,2.28,1.72,0.17,0.76,0.08,3963,2019-04-03 15:55:08:719
-4.89,-1.54,6.13,-5.1,-2.29,-4.13,-0.19,0.05,-0.06,3967,2019-04-03 15:55:08:723
-4.89,-1.54,6.13,-5.1,-2.29,-4.13,-0.19,0.05,-0.06,3972,2019-04-03 15:55:08:728
-4.89,-1.54,6.13,-5.1,-2.29,-4.13,-0.19,0.05,-0.06,3977,2019-04-03 15:55:08:733
-4.89,-1.54,6.13,-5.1,-2.29,-4.13,-0.19,0.05,-0.06,3983,2019-04-03 15:55:08:739
0.06,-2.64,10.53,-0.76,-3.16,-0.09,0.25,-0.58,-0.2,3987,2019-04-03 15:55:08:743
0.06,-2.64,10.53,-0.76,-3.16,-0.09,0.25,-0.58,-0.2,3992,2019-04-03 15:55:08:748
0.06,-2.64,10.53,-0.76,-3.16,-0.09,0.25,-0.58,-0.2,3997,2019-04-03 15:55:08:753
0.06,-2.64,10.53,-0.76,-3.16,-0.09,0.25,-0.58,-0.2,4002,2019-04-03 15:55:08:758
2.99,-0.4,8.18,2.45,-0.36,-1.63,0.04,0.1,-0.03,4007,2019-04-03 15:55:08:763
2.99,-0.4,8.18,2.45,-0.36,-1.63,0.04,0.1,-0.03,4012,2019-04-03 15:55:08:768
2.99,-0.4,8.18,2.45,-0.36,-1.63,0.04,0.1,-0.03,4017,2019-04-03 15:55:08:773
5.7,2.31,11.0,2.45,-0.36,1.87,-0.19,0.0,-0.1,4022,2019-04-03 15:55:08:778
5.7,2.31,11.0,4.82,2.71,1.87,-0.19,0.0,-0.1,4028,2019-04-03 15:55:08:784
5.7,2.31,11.0,4.82,2.71,1.87,-0.19,0.0,-0.1,4032,2019-04-03 15:55:08:788
5.7,2.31,11.0,4.82,2.71,1.87,-0.19,0.0,-0.1,4037,2019-04-03 15:55:08:793
7.17,-1.47,13.98,6.34,-1.26,4.69,0.31,0.36,-0.01,4041,2019-04-03 15:55:08:797
7.17,-1.47,13.98,6.34,-1.26,4.69,0.31,0.36,-0.01,4047,2019-04-03 15:55:08:803
7.17,-1.47,13.98,6.34,-1.26,4.69,0.31,0.36,-0.01,4052,2019-04-03 15:55:08:808
7.17,-1.47,13.98,6.34,-1.26,4.69,0.31,0.36,-0.01,4057,2019-04-03 15:55:08:813
-2.15,1.23,10.75,-2.39,1.37,1.62,0.01,0.16,-0.01,4062,2019-04-03 15:55:08:818
-2.15,1.23,10.75,-2.39,1.37,1.62,0.01,0.16,-0.01,4068,2019-04-03 15:55:08:824
-2.15,1.23,10.75,-2.39,1.37,1.62,0.01,0.16,-0.01,4072,2019-04-03 15:55:08:828
-2.15,1.23,10.75,-2.39,1.37,1.62,0.01,0.16,-0.01,4078,2019-04-03 15:55:08:834
-3.84,1.12,7.72,-4.53,1.5,-2.02,-0.13,-0.3,-0.11,4083,2019-04-03 15:55:08:839
-3.84,1.12,7.72,-4.53,1.5,-2.02,-0.13,-0.3,-0.11,4087,2019-04-03 15:55:08:843
-3.84,1.12,7.72,-4.53,1.5,-2.02,-0.13,-0.3,-0.11,4092,2019-04-03 15:55:08:848
-3.84,1.12,7.72,-4.53,1.5,-2.02,-0.13,-0.3,-0.11,4097,2019-04-03 15:55:08:853
2.21,2.31,11.02,1.59,2.32,1.27,0.3,-0.23,-0.18,4103,2019-04-03 15:55:08:859
2.21,2.31,11.02,1.59,2.32,1.27,0.3,-0.23,-0.18,4107,2019-04-03 15:55:08:863
2.21,2.31,11.02,1.59,2.32,1.27,0.3,-0.23,-0.18,4112,2019-04-03 15:55:08:868
2.21,2.31,11.02,1.59,2.32,1.27,0.3,-0.23,-0.18,4117,2019-04-03 15:55:08:873
6.75,5.76,13.69,6.5,5.63,3.71,0.09,0.19,-0.08,4123,2019-04-03 15:55:08:879
6.75,5.76,13.69,6.5,5.63,3.71,0.09,0.19,-0.08,4127,2019-04-03 15:55:08:883
6.75,5.76,13.69,6.5,5.63,3.71,0.09,0.19,-0.08,4132,2019-04-03 15:55:08:888
6.75,5.76,13.69,6.5,5.63,3.71,0.09,0.19,-0.08,4137,2019-04-03 15:55:08:893
-4.82,-2.63,6.88,-5.25,-2.5,-2.96,-0.17,0.17,-0.02,4142,2019-04-03 15:55:08:898
-4.82,-2.63,6.88,-5.25,-2.5,-2.96,-0.17,0.17,-0.02,4146,2019-04-03 15:55:08:902
-4.82,-2.63,6.88,-5.25,-2.5,-2.96,-0.17,0.17,-0.02,4151,2019-04-03 15:55:08:907
-4.82,-2.63,6.88,-5.25,-2.5,-2.96,-0.17,0.17,-0.02,4158,2019-04-03 15:55:08:914
1.42,-0.55,7.43,-5.25,-2.5,-2.96,0.41,-0.49,-0.13,4162,2019-04-03 15:55:08:918
1.42,-0.55,7.43,0.34,-0.7,-2.95,0.41,-0.49,-0.13,4167,2019-04-03 15:55:08:923
1.42,-0.55,7.43,0.34,-0.7,-2.95,0.41,-0.49,-0.13,4172,2019-04-03 15:55:08:928
1.42,-0.55,7.43,0.34,-0.7,-2.95,0.41,-0.49,-0.13,4177,2019-04-03 15:55:08:933
0.59,1.25,5.38,-0.15,0.9,-4.68,0.1,0.08,0.01,4182,2019-04-03 15:55:08:938
0.59,1.25,5.38,-0.15,0.9,-4.68,0.1,0.08,0.01,4187,2019-04-03 15:55:08:943
0.59,1.25,5.38,-0.15,0.9,-4.68,0.1,0.08,0.01,4193,2019-04-03 15:55:08:949
0.59,1.25,5.38,-0.15,0.9,-4.68,0.1,0.08,0.01,4197,2019-04-03 15:55:08:953
-3.78,0.18,9.59,-0.15,0.9,-4.68,0.1,0.08,0.01,4202,2019-04-03 15:55:08:958
-3.78,0.18,9.59,-4.39,-0.55,-0.75,0.0,0.0,0.02,4207,2019-04-03 15:55:08:963
-3.78,0.18,9.59,-4.39,-0.55,-0.75,0.0,0.0,0.02,4212,2019-04-03 15:55:08:968
-3.78,0.18,9.59,-4.39,-0.55,-0.75,0.0,0.0,0.02,4217,2019-04-03 15:55:08:973
-3.16,1.46,1.33,-3.69,0.33,-8.93,0.18,-0.35,-0.07,4221,2019-04-03 15:55:08:977
-3.16,1.46,1.33,-3.69,0.33,-8.93,0.18,-0.35,-0.07,4227,2019-04-03 15:55:08:983
-3.16,1.46,1.33,-3.69,0.33,-8.93,0.18,-0.35,-0.07,4232,2019-04-03 15:55:08:988
-3.16,1.46,1.33,-3.69,0.33,-8.93,0.18,-0.35,-0.07,4237,2019-04-03 15:55:08:993
0.53,-1.51,13.23,0.12,-2.4,2.92,-0.08,-0.08,-0.03,4242,2019-04-03 15:55:08:998
0.53,-1.51,13.23,0.12,-2.4,2.92,-0.08,-0.08,-0.03,4247,2019-04-03 15:55:09:003
0.53,-1.51,13.23,0.12,-2.4,2.92,-0.08,-0.08,-0.03,4252,2019-04-03 15:55:09:008
0.53,-1.51,13.23,0.12,-2.4,2.92,-0.08,-0.08,-0.03,4258,2019-04-03 15:55:09:014
4.08,-3.47,18.41,0.12,-2.4,2.92,-0.11,0.25,-0.02,4262,2019-04-03 15:55:09:018
4.08,-3.47,18.41,3.6,-4.52,7.84,-0.11,0.25,-0.02,4267,2019-04-03 15:55:09:023
4.08,-3.47,18.41,3.6,-4.52,7.84,-0.11,0.25,-0.02,4272,2019-04-03 15:55:09:028
4.08,-3.47,18.41,3.6,-4.52,7.84,-0.11,0.25,-0.02,4277,2019-04-03 15:55:09:033
4.08,-3.47,18.41,3.6,-4.52,7.84,-0.11,0.25,-0.02,4282,2019-04-03 15:55:09:038
3.75,-0.21,18.73,3.3,-1.31,8.29,0.02,0.4,-0.02,4287,2019-04-03 15:55:09:043
3.75,-0.21,18.73,3.3,-1.31,8.29,0.02,0.4,-0.02,4293,2019-04-03 15:55:09:049
3.75,-0.21,18.73,3.3,-1.31,8.29,0.02,0.4,-0.02,4297,2019-04-03 15:55:09:053
3.75,-0.21,18.73,3.3,-1.31,8.29,0.02,0.4,-0.02,4302,2019-04-03 15:55:09:058
3.75,-0.21,18.73,3.3,-1.31,8.29,0.02,0.4,-0.02,4307,2019-04-03 15:55:09:063
-2.86,3.61,14.93,3.3,-1.31,8.29,0.02,0.4,-0.02,4312,2019-04-03 15:55:09:068
-2.86,3.61,14.93,-2.89,2.71,3.58,-0.5,0.41,0.01,4317,2019-04-03 15:55:09:073
-2.86,3.61,14.93,-2.89,2.71,3.58,-0.5,0.41,0.01,4322,2019-04-03 15:55:09:078
-2.86,3.61,14.93,-2.89,2.71,3.58,-0.5,0.41,0.01,4327,2019-04-03 15:55:09:083
-2.86,3.61,14.93,-2.89,2.71,3.58,-0.5,0.41,0.01,4332,2019-04-03 15:55:09:088
-8.83,-3.23,9.23,-8.86,-3.6,-2.48,-0.17,-0.32,-0.12,4337,2019-04-03 15:55:09:093
-8.83,-3.23,9.23,-8.86,-3.6,-2.48,-0.17,-0.32,-0.12,4342,2019-04-03 15:55:09:098
-8.83,-3.23,9.23,-8.86,-3.6,-2.48,-0.17,-0.32,-0.12,4347,2019-04-03 15:55:09:103
-8.83,-3.23,9.23,-8.86,-3.6,-2.48,-0.17,-0.32,-0.12,4352,2019-04-03 15:55:09:108
-8.83,-3.23,9.23,-8.86,-3.6,-2.48,-0.17,-0.32,-0.12,4357,2019-04-03 15:55:09:113
-0.5,5.7,14.61,-0.66,4.15,1.04,-0.43,0.08,0.19,4362,2019-04-03 15:55:09:118
-0.5,5.7,14.61,-0.66,4.15,1.04,-0.43,0.08,0.19,4367,2019-04-03 15:55:09:123
-0.5,5.7,14.61,-0.66,4.15,1.04,-0.43,0.08,0.19,4372,2019-04-03 15:55:09:128
-0.5,5.7,14.61,-0.66,4.15,1.04,-0.43,0.08,0.19,4377,2019-04-03 15:55:09:133
-0.5,5.7,14.61,-0.66,4.15,1.04,-0.43,0.08,0.19,4382,2019-04-03 15:55:09:138
-0.5,5.7,14.61,-0.66,4.15,1.04,-0.43,0.08,0.19,4388,2019-04-03 15:55:09:144
-0.26,-0.45,15.21,-0.42,-2.21,1.32,0.03,0.03,0.22,4392,2019-04-03 15:55:09:148
-0.26,-0.45,15.21,-0.42,-2.21,1.32,0.03,0.03,0.22,4398,2019-04-03 15:55:09:154
-0.26,-0.45,15.21,5.14,0.82,-5.52,0.28,0.12,0.22,4402,2019-04-03 15:55:09:158
-7.05,-3.53,3.03,5.14,0.82,-5.52,0.28,0.12,0.22,4408,2019-04-03 15:55:09:164
-7.05,-3.53,3.03,5.14,0.82,-5.52,0.28,0.12,0.22,4412,2019-04-03 15:55:09:168
-7.05,-3.53,3.03,5.14,0.82,-5.52,0.28,0.12,0.22,4418,2019-04-03 15:55:09:174
-7.05,-3.53,3.03,5.14,0.82,-5.52,0.28,0.12,0.22,4422,2019-04-03 15:55:09:178
13.33,-0.45,7.72,12.84,-1.96,-5.43,-0.28,0.36,0.19,4427,2019-04-03 15:55:09:183
13.33,-0.45,7.72,12.84,-1.96,-5.43,-0.28,0.36,0.19,4432,2019-04-03 15:55:09:188
13.33,-0.45,7.72,12.84,-1.96,-5.43,-0.28,0.36,0.19,4438,2019-04-03 15:55:09:194
-5.1,-0.87,15.19,-4.88,-2.99,2.46,0.3,0.81,0.32,4442,2019-04-03 15:55:09:198
-5.1,-0.87,15.19,-4.88,-2.99,2.46,0.3,0.81,0.32,4447,2019-04-03 15:55:09:203
-5.1,-0.87,15.19,-4.88,-2.99,2.46,0.3,0.81,0.32,4452,2019-04-03 15:55:09:208
-5.1,-0.87,15.19,-4.88,-2.99,2.46,0.3,0.81,0.32,4457,2019-04-03 15:55:09:213
-14.7,5.25,0.09,-4.88,-2.99,2.46,0.1,-0.64,0.11,4462,2019-04-03 15:55:09:218
-14.7,5.25,0.09,-14.61,2.88,-12.62,0.1,-0.64,0.11,4468,2019-04-03 15:55:09:224
-14.7,5.25,0.09,-14.61,2.88,-12.62,0.1,-0.64,0.11,4472,2019-04-03 15:55:09:228
-14.7,5.25,0.09,-14.61,2.88,-12.62,0.1,-0.64,0.11,4477,2019-04-03 15:55:09:233
2.71,-1.05,6.92,2.54,-3.35,-5.92,-0.35,-0.57,-0.02,4482,2019-04-03 15:55:09:238
2.71,-1.05,6.92,2.54,-3.35,-5.92,-0.35,-0.57,-0.02,4487,2019-04-03 15:55:09:243
2.71,-1.05,6.92,2.54,-3.35,-5.92,-0.35,-0.57,-0.02,4492,2019-04-03 15:55:09:248
2.71,-1.05,6.92,2.54,-3.35,-5.92,-0.35,-0.57,-0.02,4497,2019-04-03 15:55:09:253
7.0,-8.74,15.64,6.76,-10.49,3.73,0.26,0.58,0.1,4502,2019-04-03 15:55:09:258
7.0,-8.74,15.64,6.76,-10.49,3.73,0.26,0.58,0.1,4507,2019-04-03 15:55:09:263
7.0,-8.74,15.64,6.76,-10.49,3.73,0.26,0.58,0.1,4512,2019-04-03 15:55:09:268
7.0,-8.74,15.64,6.76,-10.49,3.73,0.26,0.58,0.1,4517,2019-04-03 15:55:09:273
-5.81,6.77,7.44,-5.63,4.96,-3.47,-0.09,0.3,0.0,4522,2019-04-03 15:55:09:278
-5.81,6.77,7.44,-5.63,4.96,-3.47,-0.09,0.3,0.0,4527,2019-04-03 15:55:09:283
-5.81,6.77,7.44,-5.63,4.96,-3.47,-0.09,0.3,0.0,4532,2019-04-03 15:55:09:288
-5.81,6.77,7.44,-5.63,4.96,-3.47,-0.09,0.3,0.0,4537,2019-04-03 15:55:09:293
-7.23,-8.66,-3.12,-7.16,-8.89,-12.57,-0.31,-0.8,-0.19,4542,2019-04-03 15:55:09:298
-7.23,-8.66,-3.12,-7.16,-8.89,-12.57,-0.31,-0.8,-0.19,4547,2019-04-03 15:55:09:303
-7.23,-8.66,-3.12,-7.16,-8.89,-12.57,-0.31,-0.8,-0.19,4552,2019-04-03 15:55:09:308
-7.23,-8.66,-3.12,-7.16,-8.89,-12.57,-0.31,-0.8,-0.19,4557,2019-04-03 15:55:09:313
10.28,-7.86,10.34,-7.16,-8.89,-12.57,-0.31,-0.8,-0.19,4562,2019-04-03 15:55:09:318
10.28,-7.86,10.34,9.85,-7.02,1.66,0.28,-0.31,-0.17,4567,2019-04-03 15:55:09:323
10.28,-7.86,10.34,9.85,-7.02,1.66,0.28,-0.31,-0.17,4572,2019-04-03 15:55:09:328
10.28,-7.86,10.34,9.85,-7.02,1.66,0.28,-0.31,-0.17,4578,2019-04-03 15:55:09:334
10.28,-7.86,10.34,9.85,-7.02,1.66,0.28,-0.31,-0.17,4582,2019-04-03 15:55:09:338
10.28,-7.86,10.34,9.85,-7.02,1.66,0.28,-0.31,-0.17,4587,2019-04-03 15:55:09:343
12.48,6.01,18.58,12.12,7.07,10.03,-0.08,0.71,-0.04,4592,2019-04-03 15:55:09:348
12.48,6.01,18.58,12.12,7.07,10.03,-0.08,0.71,-0.04,4597,2019-04-03 15:55:09:353
12.48,6.01,18.58,12.12,7.07,10.03,-0.01,0.15,-0.02,4602,2019-04-03 15:55:09:358
12.48,6.01,18.58,12.12,7.07,10.03,-0.01,0.15,-0.02,4607,2019-04-03 15:55:09:363
12.48,6.01,18.58,12.12,7.07,10.03,-0.01,0.15,-0.02,4612,2019-04-03 15:55:09:368
12.48,6.01,18.58,12.12,7.07,10.03,-0.01,0.15,-0.02,4617,2019-04-03 15:55:09:373
-3.73,-1.25,7.65,-3.44,-0.42,-2.45,0.11,-0.53,-0.16,4622,2019-04-03 15:55:09:378
-3.73,-1.25,7.65,-3.44,-0.42,-2.45,0.11,-0.53,-0.16,4627,2019-04-03 15:55:09:383
-3.73,-1.25,7.65,-3.44,-0.42,-2.45,0.11,-0.53,-0.16,4632,2019-04-03 15:55:09:388
-3.73,-1.25,7.65,-3.44,-0.42,-2.45,0.11,-0.53,-0.16,4637,2019-04-03 15:55:09:393
4.25,1.77,5.74,3.63,2.93,-4.38,-0.06,-0.07,-0.04,4641,2019-04-03 15:55:09:397
4.25,1.77,5.74,3.63,2.93,-4.38,-0.06,-0.07,-0.04,4647,2019-04-03 15:55:09:403
4.25,1.77,5.74,3.63,2.93,-4.38,-0.06,-0.07,-0.04,4651,2019-04-03 15:55:09:407
4.25,1.77,5.74,3.63,2.93,-4.38,-0.06,-0.07,-0.04,4657,2019-04-03 15:55:09:413
4.25,1.77,5.74,3.63,2.93,-4.38,-0.06,-0.07,-0.04,4662,2019-04-03 15:55:09:418
0.11,-1.25,3.03,-0.63,0.28,-5.94,-0.2,0.13,-0.04,4667,2019-04-03 15:55:09:423
0.11,-1.25,3.03,-0.63,0.28,-5.94,-0.2,0.13,-0.04,4672,2019-04-03 15:55:09:428
0.11,-1.25,3.03,-0.63,0.28,-5.94,-0.2,0.13,-0.04,4677,2019-04-03 15:55:09:433
4.38,-1.68,9.68,3.65,-0.07,1.2,0.0,-0.04,-0.07,4682,2019-04-03 15:55:09:438
4.38,-1.68,9.68,3.65,-0.07,1.2,0.0,-0.04,-0.07,4687,2019-04-03 15:55:09:443
4.38,-1.68,9.68,3.65,-0.07,1.2,0.0,-0.04,-0.07,4692,2019-04-03 15:55:09:448
4.38,-1.68,9.68,3.65,-0.07,1.2,0.0,-0.04,-0.07,4698,2019-04-03 15:55:09:454
7.69,-0.18,19.64,3.65,-0.07,1.2,0.29,0.4,0.03,4702,2019-04-03 15:55:09:458
7.69,-0.18,19.64,6.95,0.89,10.72,0.29,0.4,0.03,4707,2019-04-03 15:55:09:463
7.69,-0.18,19.64,6.95,0.89,10.72,0.29,0.4,0.03,4712,2019-04-03 15:55:09:468
7.69,-0.18,19.64,6.95,0.89,10.72,0.29,0.4,0.03,4717,2019-04-03 15:55:09:473
-11.62,4.84,3.88,-12.36,5.81,-5.12,-0.19,0.13,0.02,4722,2019-04-03 15:55:09:478
-11.62,4.84,3.88,-12.36,5.81,-5.12,-0.19,0.13,0.02,4727,2019-04-03 15:55:09:483
-11.62,4.84,3.88,-12.36,5.81,-5.12,-0.19,0.13,0.02,4732,2019-04-03 15:55:09:488
-11.62,4.84,3.88,-12.36,5.81,-5.12,-0.19,0.13,0.02,4737,2019-04-03 15:55:09:493
-3.11,-5.17,10.21,-3.97,-4.78,0.59,-0.08,-0.93,-0.17,4742,2019-04-03 15:55:09:498
-3.11,-5.17,10.21,-3.97,-4.78,0.59,-0.08,-0.93,-0.17,4747,2019-04-03 15:55:09:503
-3.11,-5.17,10.21,-3.97,-4.78,0.59,-0.08,-0.93,-0.17,4752,2019-04-03 15:55:09:508
-3.11,-5.17,10.21,-3.97,-4.78,0.59,-0.08,-0.93,-0.17,4757,2019-04-03 15:55:09:513
0.64,5.35,3.61,-3.97,-4.78,0.59,-0.08,-0.93,-0.17,4762,2019-04-03 15:55:09:518
0.64,5.35,3.61,0.66,4.67,-5.55,0.31,0.15,0.02,4767,2019-04-03 15:55:09:523
0.64,5.35,3.61,0.66,4.67,-5.55,0.31,0.15,0.02,4773,2019-04-03 15:55:09:529
0.64,5.35,3.61,0.66,4.67,-5.55,0.31,0.15,0.02,4777,2019-04-03 15:55:09:533
0.64,5.35,3.61,0.66,4.67,-5.55,0.31,0.15,0.02,4781,2019-04-03 15:55:09:537
1.71,-2.08,-0.24,1.2,-2.38,-9.04,-0.42,-0.32,-0.12,4787,2019-04-03 15:55:09:543
1.71,-2.08,-0.24,1.2,-2.38,-9.04,-0.42,-0.32,-0.12,4792,2019-04-03 15:55:09:548
1.71,-2.08,-0.24,1.2,-2.38,-9.04,-0.42,-0.32,-0.12,4797,2019-04-03 15:55:09:553
15.01,-8.71,22.21,1.2,-2.38,-9.04,-0.42,-0.32,-0.12,4802,2019-04-03 15:55:09:558
15.01,-8.71,22.21,13.77,-8.16,13.4,0.16,0.33,0.0,4807,2019-04-03 15:55:09:563
15.01,-8.71,22.21,13.77,-8.16,13.4,0.16,0.33,0.0,4812,2019-04-03 15:55:09:568
15.01,-8.71,22.21,13.77,-8.16,13.4,0.16,0.33,0.0,4817,2019-04-03 15:55:09:573
1.42,5.79,14.25,0.97,5.94,5.54,0.34,0.96,0.07,4822,2019-04-03 15:55:09:578
1.42,5.79,14.25,0.97,5.94,5.54,0.34,0.96,0.07,4828,2019-04-03 15:55:09:584
1.42,5.79,14.25,0.97,5.94,5.54,0.34,0.96,0.07,4832,2019-04-03 15:55:09:588
1.42,5.79,14.25,0.97,5.94,5.54,0.34,0.96,0.07,4837,2019-04-03 15:55:09:593
-11.38,3.11,3.07,-11.53,3.38,-6.23,-0.57,-0.35,-0.15,4842,2019-04-03 15:55:09:598
-11.38,3.11,3.07,-11.53,3.38,-6.23,-0.57,-0.35,-0.15,4847,2019-04-03 15:55:09:603
-11.38,3.11,3.07,-11.53,3.38,-6.23,-0.57,-0.35,-0.15,4852,2019-04-03 15:55:09:608
-11.38,3.11,3.07,-11.53,3.38,-6.23,-0.57,-0.35,-0.15,4858,2019-04-03 15:55:09:614
-11.38,3.11,3.07,-11.53,3.38,-6.23,-0.57,-0.35,-0.15,4862,2019-04-03 15:55:09:618
-0.68,-5.58,8.28,-1.24,-5.38,-1.91,0.22,-0.73,-0.18,4867,2019-04-03 15:55:09:623
-0.68,-5.58,8.28,-1.24,-5.38,-1.91,0.22,-0.73,-0.18,4873,2019-04-03 15:55:09:629
-0.68,-5.58,8.28,-1.24,-5.38,-1.91,0.22,-0.73,-0.18,4876,2019-04-03 15:55:09:632
4.64,5.02,15.22,4.26,4.79,4.79,0.21,0.11,-0.01,4882,2019-04-03 15:55:09:638
4.64,5.02,15.22,4.26,4.79,4.79,0.21,0.11,-0.01,4887,2019-04-03 15:55:09:643
4.64,5.02,15.22,4.26,4.79,4.79,0.21,0.11,-0.01,4892,2019-04-03 15:55:09:648
4.64,5.02,15.22,4.26,4.79,4.79,0.21,0.11,-0.01,4897,2019-04-03 15:55:09:653
13.35,2.88,9.87,12.6,2.75,-0.58,-0.35,0.31,0.02,4902,2019-04-03 15:55:09:658
13.35,2.88,9.87,12.6,2.75,-0.58,-0.35,0.31,0.02,4907,2019-04-03 15:55:09:663
13.35,2.88,9.87,12.6,2.75,-0.58,-0.35,0.31,0.02,4912,2019-04-03 15:55:09:668
13.35,2.88,9.87,12.6,2.75,-0.58,-0.35,0.31,0.02,4917,2019-04-03 15:55:09:673
1.51,-1.84,15.84,0.62,-2.09,5.15,0.38,0.6,0.07,4923,2019-04-03 15:55:09:679
1.51,-1.84,15.84,0.62,-2.09,5.15,0.38,0.6,0.07,4927,2019-04-03 15:55:09:683
1.51,-1.84,15.84,0.62,-2.09,5.15,0.38,0.6,0.07,4931,2019-04-03 15:55:09:687
1.51,-1.84,15.84,0.62,-2.09,5.15,0.38,0.6,0.07,4936,2019-04-03 15:55:09:692
-2.04,2.49,6.7,-2.55,1.87,-3.47,0.33,-0.18,-0.06,4941,2019-04-03 15:55:09:697
-2.04,2.49,6.7,-2.55,1.87,-3.47,0.33,-0.18,-0.06,4947,2019-04-03 15:55:09:703
-2.04,2.49,6.7,-2.55,1.87,-3.47,0.33,-0.18,-0.06,4952,2019-04-03 15:55:09:708
-2.04,2.49,6.7,-2.55,1.87,-3.47,0.33,-0.18,-0.06,4957,2019-04-03 15:55:09:713
-4.82,0.78,6.62,-2.55,1.87,-3.47,0.33,-0.18,-0.06,4962,2019-04-03 15:55:09:718
-4.82,0.78,6.62,-5.47,0.72,-4.21,-0.35,-0.28,-0.02,4967,2019-04-03 15:55:09:723
-4.82,0.78,6.62,-5.47,0.72,-4.21,-0.35,-0.28,-0.02,4973,2019-04-03 15:55:09:729
-4.82,0.78,6.62,-5.47,0.72,-4.21,-0.35,-0.28,-0.02,4977,2019-04-03 15:55:09:733
-4.82,0.78,6.62,-5.47,0.72,-4.21,-0.35,-0.28,-0.02,4982,2019-04-03 15:55:09:738
1.82,-0.08,16.02,1.52,-0.69,4.67,0.3,-0.19,-0.09,4987,2019-04-03 15:55:09:743
1.82,-0.08,16.02,1.52,-0.69,4.67,0.3,-0.19,-0.09,4992,2019-04-03 15:55:09:748
1.82,-0.08,16.02,1.52,-0.69,4.67,0.3,-0.19,-0.09,4996,2019-04-03 15:55:09:752
1.82,-0.08,16.02,1.52,-0.69,4.67,0.3,-0.19,-0.09,5003,2019-04-03 15:55:09:759
1.82,-0.08,16.02,1.52,-0.69,4.67,0.3,-0.19,-0.09,5007,2019-04-03 15:55:09:763
2.51,3.01,9.94,1.52,-0.69,4.67,0.03,0.14,-0.03,5012,2019-04-03 15:55:09:768
2.51,3.01,9.94,2.47,1.79,-1.16,0.03,0.14,-0.03,5017,2019-04-03 15:55:09:773
15.86,6.43,7.59,2.47,1.79,-1.16,-0.12,-0.06,-0.01,5022,2019-04-03 15:55:09:778
15.86,6.43,7.59,2.47,1.79,-1.16,-0.12,-0.06,-0.01,5027,2019-04-03 15:55:09:783
15.86,6.43,7.59,2.47,1.79,-1.16,-0.12,-0.06,-0.01,5032,2019-04-03 15:55:09:788
15.86,6.43,7.59,2.47,1.79,-1.16,-0.12,-0.06,-0.01,5037,2019-04-03 15:55:09:793
-4.43,0.72,2.51,-5.56,-0.83,-7.67,0.34,-0.78,-0.13,5041,2019-04-03 15:55:09:797
-4.43,0.72,2.51,-5.56,-0.83,-7.67,0.34,-0.78,-0.13,5047,2019-04-03 15:55:09:803
-4.43,0.72,2.51,-5.56,-0.83,-7.67,0.34,-0.78,-0.13,5052,2019-04-03 15:55:09:808
-4.43,0.72,2.51,-5.56,-0.83,-7.67,0.34,-0.78,-0.13,5057,2019-04-03 15:55:09:813
12.4,2.52,16.77,-5.56,-0.83,-7.67,-0.08,0.23,0.02,5062,2019-04-03 15:55:09:818
12.4,2.52,16.77,11.68,0.8,6.62,-0.08,0.23,0.02,5067,2019-04-03 15:55:09:823
12.4,2.52,16.77,11.68,0.8,6.62,-0.08,0.23,0.02,5072,2019-04-03 15:55:09:828
12.4,2.52,16.77,11.68,0.8,6.62,-0.08,0.23,0.02,5077,2019-04-03 15:55:09:833
12.4,2.52,16.77,11.68,0.8,6.62,-0.08,0.23,0.02,5082,2019-04-03 15:55:09:838
8.16,-4.37,14.41,7.64,-5.82,4.3,0.11,0.76,0.02,5087,2019-04-03 15:55:09:843
8.16,-4.37,14.41,7.64,-5.82,4.3,0.11,0.76,0.02,5093,2019-04-03 15:55:09:849
8.16,-4.37,14.41,7.64,-5.82,4.3,0.11,0.76,0.02,5097,2019-04-03 15:55:09:853
-5.62,4.06,3.35,-5.77,2.69,-5.99,-0.03,0.05,0.0,5102,2019-04-03 15:55:09:858
-5.62,4.06,3.35,-5.77,2.69,-5.99,-0.03,0.05,0.0,5107,2019-04-03 15:55:09:863
-5.62,4.06,3.35,-5.77,2.69,-5.99,-0.03,0.05,0.0,5112,2019-04-03 15:55:09:868
-5.62,4.06,3.35,-5.77,2.69,-5.99,-0.03,0.05,0.0,5118,2019-04-03 15:55:09:874
-5.62,4.06,3.35,-5.77,2.69,-5.99,-0.03,0.05,0.0,5122,2019-04-03 15:55:09:878
-5.62,4.06,3.35,-5.77,2.69,-5.99,-0.03,0.05,0.0,5127,2019-04-03 15:55:09:883
-1.55,-1.5,12.35,-2.24,-2.65,2.81,-0.19,-0.42,-0.06,5132,2019-04-03 15:55:09:888
-1.55,-1.5,12.35,-2.24,-2.65,2.81,-0.19,-0.42,-0.06,5137,2019-04-03 15:55:09:893
-1.55,-1.5,12.35,-2.24,-2.65,2.81,-0.22,-0.2,-0.09,5142,2019-04-03 15:55:09:898
-1.55,-1.5,12.35,-2.24,-2.65,2.81,-0.22,-0.2,-0.09,5148,2019-04-03 15:55:09:904
-1.55,-1.5,12.35,-2.24,-2.65,2.81,-0.22,-0.2,-0.09,5152,2019-04-03 15:55:09:908
-1.55,-1.5,12.35,-2.24,-2.65,2.81,-0.22,-0.2,-0.09,5157,2019-04-03 15:55:09:913
-1.55,-1.5,12.35,-2.24,-2.65,2.81,-0.22,-0.2,-0.09,5162,2019-04-03 15:55:09:918
6.05,1.95,10.11,5.17,0.63,0.7,-0.25,0.33,0.0,5167,2019-04-03 15:55:09:923
6.05,1.95,10.11,5.17,0.63,0.7,-0.25,0.33,0.0,5172,2019-04-03 15:55:09:928
6.05,1.95,10.11,5.17,0.63,0.7,-0.25,0.33,0.0,5177,2019-04-03 15:55:09:933
-9.15,1.0,8.61,-9.54,-0.15,-0.51,-0.23,0.17,0.04,5182,2019-04-03 15:55:09:938
-9.15,1.0,8.61,-9.54,-0.15,-0.51,-0.23,0.17,0.04,5188,2019-04-03 15:55:09:944
-9.15,1.0,8.61,-9.54,-0.15,-0.51,-0.23,0.17,0.04,5192,2019-04-03 15:55:09:948
-9.15,1.0,8.61,-9.54,-0.15,-0.51,-0.23,0.17,0.04,5197,2019-04-03 15:55:09:953
-6.13,1.12,8.11,-6.84,-0.19,-1.09,0.11,-0.67,-0.07,5202,2019-04-03 15:55:09:958
-6.13,1.12,8.11,-6.84,-0.19,-1.09,0.11,-0.67,-0.07,5207,2019-04-03 15:55:09:963
-6.13,1.12,8.11,-6.84,-0.19,-1.09,0.11,-0.67,-0.07,5212,2019-04-03 15:55:09:968
-6.13,1.12,8.11,-6.84,-0.19,-1.09,0.11,-0.67,-0.07,5217,2019-04-03 15:55:09:973
1.65,1.75,5.86,0.42,0.77,-3.38,-0.2,-0.22,0.0,5222,2019-04-03 15:55:09:978
1.65,1.75,5.86,0.42,0.77,-3.38,-0.2,-0.22,0.0,5227,2019-04-03 15:55:09:983
1.65,1.75,5.86,0.42,0.77,-3.38,-0.15,0.27,0.08,5232,2019-04-03 15:55:09:988
1.65,1.75,5.86,-1.54,0.54,1.33,-0.15,0.27,0.08,5237,2019-04-03 15:55:09:993
1.65,1.75,5.86,-1.54,0.54,1.33,-0.15,0.27,0.08,5242,2019-04-03 15:55:09:998
1.65,1.75,5.86,-1.54,0.54,1.33,-0.15,0.27,0.08,5247,2019-04-03 15:55:10:003
1.65,1.75,5.86,-1.54,0.54,1.33,-0.15,0.27,0.08,5252,2019-04-03 15:55:10:008
1.65,1.75,5.86,-1.54,0.54,1.33,-0.15,0.27,0.08,5258,2019-04-03 15:55:10:014
-1.25,0.34,6.99,-1.7,-0.37,-2.38,-0.02,0.2,0.07,5262,2019-04-03 15:55:10:018
-1.25,0.34,6.99,-1.7,-0.37,-2.38,-0.02,0.2,0.07,5267,2019-04-03 15:55:10:023
-1.25,0.34,6.99,-1.7,-0.37,-2.38,-0.02,0.2,0.07,5272,2019-04-03 15:55:10:028
-1.25,0.34,6.99,-1.7,-0.37,-2.38,-0.02,0.2,0.07,5277,2019-04-03 15:55:10:033
-3.39,-4.33,-5.11,-1.7,-0.37,-2.38,-0.02,0.2,0.07,5282,2019-04-03 15:55:10:038
-3.39,-4.33,-5.11,-4.02,-4.56,-14.09,-0.4,-0.19,0.04,5287,2019-04-03 15:55:10:043
-3.39,-4.33,-5.11,-4.02,-4.56,-14.09,-0.4,-0.19,0.04,5292,2019-04-03 15:55:10:048
-3.39,-4.33,-5.11,-4.02,-4.56,-14.09,-0.4,-0.19,0.04,5297,2019-04-03 15:55:10:053
-3.39,-4.33,-5.11,-4.02,-4.56,-14.09,-0.4,-0.19,0.04,5302,2019-04-03 15:55:10:058
-3.39,-4.33,-5.11,-4.02,-4.56,-14.09,-0.4,-0.19,0.04,5308,2019-04-03 15:55:10:064
2.79,0.08,19.37,-6.35,1.02,0.64,-0.4,-0.19,0.04,5312,2019-04-03 15:55:10:068
2.79,0.08,19.37,-6.35,1.02,0.64,-0.04,0.53,0.13,5317,2019-04-03 15:55:10:073
-0.89,-1.28,16.71,-1.76,-1.57,7.21,-0.04,0.53,0.13,5322,2019-04-03 15:55:10:078
-0.89,-1.28,16.71,-1.76,-1.57,7.21,-0.04,0.53,0.13,5327,2019-04-03 15:55:10:083
-0.89,-1.28,16.71,-1.76,-1.57,7.21,-0.04,0.53,0.13,5332,2019-04-03 15:55:10:088
-0.89,-1.28,16.71,-1.76,-1.57,7.21,-0.04,0.53,0.13,5338,2019-04-03 15:55:10:094
9.13,-0.85,15.86,8.4,-1.12,6.36,0.05,0.42,0.17,5341,2019-04-03 15:55:10:097
9.13,-0.85,15.86,8.4,-1.12,6.36,0.05,0.42,0.17,5346,2019-04-03 15:55:10:102
9.13,-0.85,15.86,8.4,-1.12,6.36,-0.14,0.65,0.11,5352,2019-04-03 15:55:10:108
9.13,-0.85,15.86,12.77,-0.26,9.1,-0.14,0.65,0.11,5357,2019-04-03 15:55:10:113
9.13,-0.85,15.86,12.77,-0.26,9.1,-0.14,0.65,0.11,5362,2019-04-03 15:55:10:118
9.13,-0.85,15.86,12.77,-0.26,9.1,-0.14,0.65,0.11,5367,2019-04-03 15:55:10:123
9.13,-0.85,15.86,12.77,-0.26,9.1,-0.14,0.65,0.11,5372,2019-04-03 15:55:10:128
9.13,-0.85,15.86,12.77,-0.26,9.1,-0.14,0.65,0.11,5377,2019-04-03 15:55:10:133
-14.44,0.43,9.13,-14.81,-0.2,-0.84,-0.21,-0.55,-0.06,5382,2019-04-03 15:55:10:138
-14.44,0.43,9.13,-14.81,-0.2,-0.84,-0.21,-0.55,-0.06,5387,2019-04-03 15:55:10:143
-14.44,0.43,9.13,-14.81,-0.2,-0.84,-0.21,-0.55,-0.06,5392,2019-04-03 15:55:10:148
-14.44,0.43,9.13,-14.81,-0.2,-0.84,-0.21,-0.55,-0.06,5397,2019-04-03 15:55:10:153
0.34,1.82,6.29,0.05,0.81,-3.56,0.21,-0.55,-0.11,5402,2019-04-03 15:55:10:158
0.34,1.82,6.29,0.05,0.81,-3.56,0.21,-0.55,-0.11,5407,2019-04-03 15:55:10:163
-2.85,-1.24,14.48,0.05,0.81,-3.56,0.21,-0.55,-0.11,5412,2019-04-03 15:55:10:168
-2.85,-1.24,14.48,-2.72,-1.84,5.0,0.78,0.29,-0.03,5417,2019-04-03 15:55:10:173
-2.85,-1.24,14.48,-2.72,-1.84,5.0,0.78,0.29,-0.03,5422,2019-04-03 15:55:10:178
-2.85,-1.24,14.48,-2.72,-1.84,5.0,0.78,0.29,-0.03,5427,2019-04-03 15:55:10:183
-2.85,-1.24,14.48,-2.72,-1.84,5.0,0.78,0.29,-0.03,5432,2019-04-03 15:55:10:188
12.8,-6.03,26.71,12.46,-6.3,16.41,-0.22,-0.15,-0.05,5437,2019-04-03 15:55:10:193
12.8,-6.03,26.71,12.46,-6.3,16.41,-0.22,-0.15,-0.05,5442,2019-04-03 15:55:10:198
12.8,-6.03,26.71,12.46,-6.3,16.41,-0.22,-0.15,-0.05,5447,2019-04-03 15:55:10:203
1.1,-19.09,10.36,12.46,-6.3,16.41,0.55,0.73,0.04,5452,2019-04-03 15:55:10:208
1.1,-19.09,10.36,1.15,-18.2,0.18,0.55,0.73,0.04,5458,2019-04-03 15:55:10:214
1.1,-19.09,10.36,1.15,-18.2,0.18,0.55,0.73,0.04,5462,2019-04-03 15:55:10:218
1.1,-19.09,10.36,1.15,-18.2,0.18,0.55,0.73,0.04,5467,2019-04-03 15:55:10:223
-10.04,1.94,-5.45,-9.62,3.09,-14.3,0.33,-0.16,-0.34,5472,2019-04-03 15:55:10:228
-10.04,1.94,-5.45,-9.62,3.09,-14.3,0.33,-0.16,-0.34,5477,2019-04-03 15:55:10:233
-10.04,1.94,-5.45,-9.62,3.09,-14.3,0.33,-0.16,-0.34,5483,2019-04-03 15:55:10:239
-10.04,1.94,-5.45,-9.62,3.09,-14.3,0.33,-0.16,-0.34,5487,2019-04-03 15:55:10:243
14.58,0.01,14.59,14.77,1.28,5.29,-0.4,-0.22,-0.44,5492,2019-04-03 15:55:10:248
14.58,0.01,14.59,14.77,1.28,5.29,-0.4,-0.22,-0.44,5497,2019-04-03 15:55:10:253
14.58,0.01,14.59,14.77,1.28,5.29,-0.4,-0.22,-0.44,5502,2019-04-03 15:55:10:258
14.58,0.01,14.59,14.77,1.28,5.29,-0.4,-0.22,-0.44,5507,2019-04-03 15:55:10:263
14.58,0.01,14.59,14.77,1.28,5.29,-0.4,-0.22,-0.44,5512,2019-04-03 15:55:10:268
4.83,5.31,9.75,4.96,5.67,1.9,0.78,0.43,-0.13,5517,2019-04-03 15:55:10:273
4.83,5.31,9.75,4.96,5.67,1.9,0.78,0.43,-0.13,5523,2019-04-03 15:55:10:279
4.83,5.31,9.75,4.96,5.67,1.9,0.78,0.43,-0.13,5527,2019-04-03 15:55:10:283
4.83,5.31,9.75,4.96,5.67,1.9,0.78,0.43,-0.13,5532,2019-04-03 15:55:10:288
8.15,4.52,11.94,8.86,5.06,3.92,0.0,0.3,-0.16,5536,2019-04-03 15:55:10:292
8.15,4.52,11.94,8.86,5.06,3.92,0.0,0.3,-0.16,5542,2019-04-03 15:55:10:298
8.15,4.52,11.94,8.86,5.06,3.92,0.0,0.3,-0.16,5547,2019-04-03 15:55:10:303
5.65,-4.9,13.5,8.86,5.06,3.92,-0.12,-0.06,-0.17,5552,2019-04-03 15:55:10:308
5.65,-4.9,13.5,5.03,-3.62,4.86,-0.12,-0.06,-0.17,5557,2019-04-03 15:55:10:313
5.65,-4.9,13.5,5.03,-3.62,4.86,-0.12,-0.06,-0.17,5563,2019-04-03 15:55:10:319
5.65,-4.9,13.5,5.03,-3.62,4.86,-0.12,-0.06,-0.17,5572,2019-04-03 15:55:10:328
5.65,-4.9,13.5,5.03,-3.62,4.86,-0.12,-0.06,-0.17,5573,2019-04-03 15:55:10:329
5.65,-4.9,13.5,5.03,-3.62,4.86,-0.12,-0.06,-0.17,5578,2019-04-03 15:55:10:334
-0.43,2.47,8.41,-0.72,3.61,0.45,0.31,0.31,-0.01,5584,2019-04-03 15:55:10:340
-0.43,2.47,8.41,-0.72,3.61,0.45,0.31,0.31,-0.01,5586,2019-04-03 15:55:10:342
-0.43,2.47,8.41,-0.72,3.61,0.45,0.31,0.31,-0.01,5593,2019-04-03 15:55:10:349
-0.43,2.47,8.41,-0.72,3.61,0.45,0.31,0.31,-0.01,5597,2019-04-03 15:55:10:353
-5.56,-0.18,6.34,-0.72,3.61,0.45,-0.09,-0.29,-0.14,5602,2019-04-03 15:55:10:358
-5.56,-0.18,6.34,-5.79,1.7,-1.78,-0.09,-0.29,-0.14,5607,2019-04-03 15:55:10:363
-0.48,0.46,4.86,-5.79,1.7,-1.78,0.09,-0.34,-0.13,5613,2019-04-03 15:55:10:369
-0.48,0.46,4.86,-5.79,1.7,-1.78,0.09,-0.34,-0.13,5617,2019-04-03 15:55:10:373
-0.48,0.46,4.86,-5.79,1.7,-1.78,0.09,-0.34,-0.13,5621,2019-04-03 15:55:10:377
-0.48,0.46,4.86,-5.79,1.7,-1.78,0.09,-0.34,-0.13,5628,2019-04-03 15:55:10:384
-0.48,0.46,4.86,-5.79,1.7,-1.78,0.09,-0.34,-0.13,5631,2019-04-03 15:55:10:387
6.39,0.76,5.53,5.74,2.04,-1.49,0.1,0.16,-0.02,5638,2019-04-03 15:55:10:394
6.39,0.76,5.53,5.74,2.04,-1.49,0.1,0.16,-0.02,5643,2019-04-03 15:55:10:399
6.39,0.76,5.53,5.74,2.04,-1.49,0.1,0.16,-0.02,5647,2019-04-03 15:55:10:403
4.44,-0.94,14.4,3.21,-0.7,7.12,0.0,0.32,0.03,5654,2019-04-03 15:55:10:410
4.44,-0.94,14.4,3.21,-0.7,7.12,0.0,0.32,0.03,5657,2019-04-03 15:55:10:413
4.44,-0.94,14.4,3.21,-0.7,7.12,0.0,0.32,0.03,5662,2019-04-03 15:55:10:418
4.44,-0.94,14.4,3.21,-0.7,7.12,0.0,0.32,0.03,5668,2019-04-03 15:55:10:424
-4.63,0.13,10.78,3.21,-0.7,7.12,0.0,0.32,0.03,5672,2019-04-03 15:55:10:428
-4.63,0.13,10.78,-6.35,-0.5,1.89,0.08,-0.1,-0.05,5678,2019-04-03 15:55:10:434
-4.63,0.13,10.78,-6.35,-0.5,1.89,0.08,-0.1,-0.05,5682,2019-04-03 15:55:10:438
-4.63,0.13,10.78,-6.35,-0.5,1.89,0.08,-0.1,-0.05,5687,2019-04-03 15:55:10:443
5.28,-7.84,17.2,3.43,-7.59,7.52,-0.34,-0.55,-0.13,5692,2019-04-03 15:55:10:448
5.28,-7.84,17.2,3.43,-7.59,7.52,-0.34,-0.55,-0.13,5698,2019-04-03 15:55:10:454
5.28,-7.84,17.2,3.43,-7.59,7.52,-0.34,-0.55,-0.13,5703,2019-04-03 15:55:10:459
5.28,-7.84,17.2,3.43,-7.59,7.52,-0.34,-0.55,-0.13,5707,2019-04-03 15:55:10:463
2.27,3.66,8.92,1.21,4.21,-0.77,0.31,0.64,-0.03,5713,2019-04-03 15:55:10:469
2.27,3.66,8.92,1.21,4.21,-0.77,0.31,0.64,-0.03,5719,2019-04-03 15:55:10:475
2.27,3.66,8.92,1.21,4.21,-0.77,0.31,0.64,-0.03,5722,2019-04-03 15:55:10:478
2.27,3.66,8.92,1.21,4.21,-0.77,0.31,0.64,-0.03,5727,2019-04-03 15:55:10:483
2.27,3.66,8.92,1.21,4.21,-0.77,0.31,0.64,-0.03,5732,2019-04-03 15:55:10:488
-12.44,5.02,0.74,-13.82,5.72,-8.85,-0.61,-0.58,-0.21,5737,2019-04-03 15:55:10:493
-12.44,5.02,0.74,-13.82,5.72,-8.85,-0.61,-0.58,-0.21,5742,2019-04-03 15:55:10:498
-12.44,5.02,0.74,-13.82,5.72,-8.85,-0.61,-0.58,-0.21,5747,2019-04-03 15:55:10:503
4.01,-0.27,11.68,-13.82,5.72,-8.85,-0.61,-0.58,-0.21,5752,2019-04-03 15:55:10:508
4.01,-0.27,11.68,3.16,-0.2,2.29,0.04,-0.4,-0.16,5757,2019-04-03 15:55:10:513
4.01,-0.27,11.68,3.16,-0.2,2.29,0.04,-0.4,-0.16,5763,2019-04-03 15:55:10:519
4.01,-0.27,11.68,3.16,-0.2,2.29,0.04,-0.4,-0.16,5767,2019-04-03 15:55:10:523
6.26,4.3,4.27,4.82,4.25,-4.96,0.21,0.14,-0.15,5772,2019-04-03 15:55:10:528
6.26,4.3,4.27,4.82,4.25,-4.96,0.21,0.14,-0.15,5778,2019-04-03 15:55:10:534
6.26,4.3,4.27,4.82,4.25,-4.96,0.21,0.14,-0.15,5785,2019-04-03 15:55:10:541
6.26,4.3,4.27,4.82,4.25,-4.96,0.21,0.14,-0.15,5788,2019-04-03 15:55:10:544
6.26,4.3,4.27,4.82,4.25,-4.96,0.21,0.14,-0.15,5792,2019-04-03 15:55:10:548
6.26,4.3,4.27,4.82,4.25,-4.96,0.21,0.14,-0.15,5797,2019-04-03 15:55:10:553
3.05,2.7,4.78,1.69,2.66,-3.98,-0.18,0.1,-0.15,5803,2019-04-03 15:55:10:559
3.05,2.7,4.78,1.69,2.66,-3.98,-0.18,0.1,-0.15,5807,2019-04-03 15:55:10:563
0.61,1.23,9.46,1.69,2.66,-3.98,0.07,-0.08,-0.1,5814,2019-04-03 15:55:10:570
0.61,1.23,9.46,1.69,2.66,-3.98,0.07,-0.08,-0.1,5817,2019-04-03 15:55:10:573
0.61,1.23,9.46,1.69,2.66,-3.98,0.07,-0.08,-0.1,5823,2019-04-03 15:55:10:579
0.61,1.23,9.46,1.69,2.66,-3.98,0.07,-0.08,-0.1,5827,2019-04-03 15:55:10:583
2.9,0.0,11.46,2.11,-0.19,2.01,0.14,-0.13,-0.05,5832,2019-04-03 15:55:10:588
2.9,0.0,11.46,2.11,-0.19,2.01,0.14,-0.13,-0.05,5838,2019-04-03 15:55:10:594
2.9,0.0,11.46,2.11,-0.19,2.01,0.14,-0.13,-0.05,5842,2019-04-03 15:55:10:598
2.9,0.0,11.46,2.11,-0.19,2.01,0.14,-0.13,-0.05,5849,2019-04-03 15:55:10:605
2.9,0.0,11.46,2.11,-0.19,2.01,0.14,-0.13,-0.05,5852,2019-04-03 15:55:10:608
2.9,0.0,11.46,2.11,-0.19,2.01,0.14,-0.13,-0.05,5857,2019-04-03 15:55:10:613
4.01,-2.82,6.63,3.36,-2.73,-2.35,-0.05,0.2,-0.01,5862,2019-04-03 15:55:10:618
4.01,-2.82,6.63,3.36,-2.73,-2.35,-0.05,0.2,-0.01,5867,2019-04-03 15:55:10:623
4.01,-2.82,6.63,3.36,-2.73,-2.35,-0.05,0.2,-0.01,5872,2019-04-03 15:55:10:628
4.01,-2.82,6.63,3.36,-2.73,-2.35,-0.05,0.2,-0.01,5878,2019-04-03 15:55:10:634
1.54,-3.59,11.31,0.9,-3.03,2.01,0.02,0.07,0.0,5882,2019-04-03 15:55:10:638
1.54,-3.59,11.31,0.9,-3.03,2.01,0.02,0.07,0.0,5890,2019-04-03 15:55:10:646
1.54,-3.59,11.31,0.9,-3.03,2.01,0.02,0.07,0.0,5891,2019-04-03 15:55:10:647
1.54,-3.59,11.31,0.9,-3.03,2.01,0.02,0.07,0.0,5897,2019-04-03 15:55:10:653
3.43,-1.73,14.25,3.23,-1.92,5.53,0.03,0.07,0.03,5902,2019-04-03 15:55:10:658
3.43,-1.73,14.25,3.23,-1.92,5.53,0.03,0.07,0.03,5907,2019-04-03 15:55:10:663
3.43,-1.73,14.25,3.23,-1.92,5.53,0.03,0.07,0.03,5913,2019-04-03 15:55:10:669
3.43,-1.73,14.25,3.23,-1.92,5.53,0.03,0.07,0.03,5917,2019-04-03 15:55:10:673
-1.84,-0.93,7.92,3.23,-1.92,5.53,-0.12,0.09,0.09,5922,2019-04-03 15:55:10:678
-1.84,-0.93,7.92,-2.74,-0.39,-1.56,-0.12,0.09,0.09,5927,2019-04-03 15:55:10:683
-2.11,-0.68,9.08,-2.74,-0.39,-1.56,-0.04,-0.14,0.05,5932,2019-04-03 15:55:10:688
-2.11,-0.68,9.08,-2.74,-0.39,-1.56,-0.04,-0.14,0.05,5938,2019-04-03 15:55:10:694
-2.11,-0.68,9.08,-2.74,-0.39,-1.56,-0.04,-0.14,0.05,5942,2019-04-03 15:55:10:698
-2.11,-0.68,9.08,-2.74,-0.39,-1.56,-0.04,-0.14,0.05,5947,2019-04-03 15:55:10:703
0.71,5.17,12.93,-0.1,5.52,3.64,0.08,-0.08,0.01,5952,2019-04-03 15:55:10:708
0.71,5.17,12.93,-0.1,5.52,3.64,0.08,-0.08,0.01,5957,2019-04-03 15:55:10:713
0.71,5.17,12.93,-0.1,5.52,3.64,0.08,-0.08,0.01,5962,2019-04-03 15:55:10:718
0.71,5.17,12.93,-0.1,5.52,3.64,0.08,-0.08,0.01,5966,2019-04-03 15:55:10:722
0.71,5.17,12.93,-0.1,5.52,3.64,0.08,-0.08,0.01,5972,2019-04-03 15:55:10:728
0.71,5.17,12.93,-0.1,5.52,3.64,0.08,-0.08,0.01,5977,2019-04-03 15:55:10:733
-2.64,5.64,9.96,-2.75,5.97,0.15,-0.14,0.19,-0.03,5983,2019-04-03 15:55:10:739
-2.64,5.64,9.96,-2.75,5.97,0.15,-0.14,0.19,-0.03,5987,2019-04-03 15:55:10:743
-2.64,5.64,9.96,-2.75,5.97,0.15,-0.14,0.19,-0.03,5991,2019-04-03 15:55:10:747
-2.64,5.64,9.96,-2.75,5.97,0.15,-0.14,0.19,-0.03,5997,2019-04-03 15:55:10:753
-2.64,5.64,9.96,-2.75,5.97,0.15,-0.14,0.19,-0.03,6002,2019-04-03 15:55:10:758
-2.64,5.64,9.96,-2.75,5.97,0.15,-0.14,0.19,-0.03,6007,2019-04-03 15:55:10:763
-6.13,6.85,2.75,-6.59,6.82,-6.9,0.25,0.53,0.13,6012,2019-04-03 15:55:10:768
-6.13,6.85,2.75,-6.59,6.82,-6.9,0.25,0.53,0.13,6017,2019-04-03 15:55:10:773
-6.13,6.85,2.75,-6.59,6.82,-6.9,0.25,0.53,0.13,6022,2019-04-03 15:55:10:778
-6.13,6.85,2.75,-6.59,6.82,-6.9,0.25,0.53,0.13,6026,2019-04-03 15:55:10:782
-6.13,6.85,2.75,-6.59,6.82,-6.9,0.25,0.53,0.13,6032,2019-04-03 15:55:10:788
-6.13,6.85,2.75,-6.59,6.82,-6.9,0.25,0.53,0.13,6036,2019-04-03 15:55:10:792
-8.3,-1.15,10.16,-8.91,-1.05,-0.01,-0.34,-0.45,0.0,6042,2019-04-03 15:55:10:798
-5.53,-1.12,6.44,6.5,-0.78,0.85,0.28,-0.47,-0.03,6053,2019-04-03 15:55:10:809
-5.53,-1.12,6.44,6.5,-0.78,0.85,0.28,-0.47,-0.03,6054,2019-04-03 15:55:10:810
-5.53,-1.12,6.44,6.5,-0.78,0.85,0.28,-0.47,-0.03,6057,2019-04-03 15:55:10:813
-5.53,-1.12,6.44,6.5,-0.78,0.85,0.28,-0.47,-0.03,6064,2019-04-03 15:55:10:820
-5.53,-1.12,6.44,6.5,-0.78,0.85,0.28,-0.47,-0.03,6069,2019-04-03 15:55:10:825
-5.53,-1.12,6.44,6.5,-0.78,0.85,0.28,-0.47,-0.03,6072,2019-04-03 15:55:10:828
-5.53,-1.12,6.44,6.5,-0.78,0.85,0.28,-0.47,-0.03,6078,2019-04-03 15:55:10:834
3.54,3.63,9.16,2.75,2.74,-1.15,-0.01,0.38,0.12,6082,2019-04-03 15:55:10:838
3.54,3.63,9.16,2.75,2.74,-1.15,-0.01,0.38,0.12,6087,2019-04-03 15:55:10:843
3.54,3.63,9.16,2.75,2.74,-1.15,-0.01,0.38,0.12,6092,2019-04-03 15:55:10:848
3.54,3.63,9.16,2.75,2.74,-1.15,-0.01,0.38,0.12,6097,2019-04-03 15:55:10:853
3.54,3.63,9.16,2.75,2.74,-1.15,-0.01,0.38,0.12,6102,2019-04-03 15:55:10:858
3.54,3.63,9.16,2.75,2.74,-1.15,-0.01,0.38,0.12,6107,2019-04-03 15:55:10:863
-4.67,0.08,9.06,-5.27,-1.21,-0.67,0.17,0.0,0.15,6113,2019-04-03 15:55:10:869
-4.67,0.08,9.06,-5.27,-1.21,-0.67,0.17,0.0,0.15,6117,2019-04-03 15:55:10:873
-4.67,0.08,9.06,-5.27,-1.21,-0.67,0.17,0.0,0.15,6122,2019-04-03 15:55:10:878
-4.67,0.08,9.06,-5.27,-1.21,-0.67,0.17,0.0,0.15,6127,2019-04-03 15:55:10:883
-0.06,1.49,7.69,-0.74,0.17,-2.28,-0.1,-0.24,0.09,6134,2019-04-03 15:55:10:890
-0.06,1.49,7.69,-0.74,0.17,-2.28,-0.1,-0.24,0.09,6137,2019-04-03 15:55:10:893
-0.06,1.49,7.69,-0.74,0.17,-2.28,-0.1,-0.24,0.09,6142,2019-04-03 15:55:10:898
-0.06,1.49,7.69,-0.74,0.17,-2.28,-0.1,-0.24,0.09,6147,2019-04-03 15:55:10:903
-0.06,1.49,7.69,-0.74,0.17,-2.28,-0.1,-0.24,0.09,6152,2019-04-03 15:55:10:908
-0.06,1.49,7.69,-0.74,0.17,-2.28,-0.1,-0.24,0.09,6157,2019-04-03 15:55:10:913
4.26,-0.89,13.94,3.52,-1.92,4.09,-0.09,-0.02,0.1,6163,2019-04-03 15:55:10:919
4.26,-0.89,13.94,3.52,-1.92,4.09,-0.09,-0.02,0.1,6168,2019-04-03 15:55:10:924
4.26,-0.89,13.94,3.52,-1.92,4.09,-0.09,-0.02,0.1,6172,2019-04-03 15:55:10:928
4.26,-0.89,13.94,3.52,-1.92,4.09,-0.09,-0.02,0.1,6177,2019-04-03 15:55:10:933
-1.84,1.77,11.61,-2.83,0.89,1.76,0.14,0.36,0.2,6183,2019-04-03 15:55:10:939
-1.84,1.77,11.61,-2.83,0.89,1.76,0.14,0.36,0.2,6188,2019-04-03 15:55:10:944
-1.84,1.77,11.61,-2.83,0.89,1.76,0.14,0.36,0.2,6192,2019-04-03 15:55:10:948
-1.84,1.77,11.61,-2.83,0.89,1.76,0.14,0.36,0.2,6197,2019-04-03 15:55:10:953
-1.84,1.77,11.61,-2.83,0.89,1.76,0.14,0.36,0.2,6202,2019-04-03 15:55:10:958
-3.64,-0.11,9.76,-4.01,-0.82,-0.17,-0.24,0.0,0.1,6207,2019-04-03 15:55:10:963
-3.64,-0.11,9.76,-4.01,-0.82,-0.17,-0.24,0.0,0.1,6211,2019-04-03 15:55:10:967
-3.64,-0.11,9.76,-4.01,-0.82,-0.17,-0.24,0.0,0.1,6219,2019-04-03 15:55:10:975
-3.64,-0.11,9.76,-4.01,-0.82,-0.17,-0.24,0.0,0.1,6222,2019-04-03 15:55:10:978
-3.64,-0.11,9.76,-4.01,-0.82,-0.17,-0.24,0.0,0.1,6228,2019-04-03 15:55:10:984
-3.3,-0.56,7.62,-4.01,-0.82,-0.17,0.03,0.12,0.04,6231,2019-04-03 15:55:10:987
-3.3,-0.56,7.62,-3.59,-1.14,-2.58,0.03,0.12,0.04,6237,2019-04-03 15:55:10:993
-3.3,-0.56,7.62,-3.59,-1.14,-2.58,0.03,0.12,0.04,6242,2019-04-03 15:55:10:998
-3.3,-0.56,7.62,-3.59,-1.14,-2.58,0.03,0.12,0.04,6247,2019-04-03 15:55:11:003
-1.21,-1.32,6.76,-1.05,-1.58,-3.16,-0.13,-0.06,-0.09,6253,2019-04-03 15:55:11:009
-1.21,-1.32,6.76,-1.05,-1.58,-3.16,-0.13,-0.06,-0.09,6257,2019-04-03 15:55:11:013
-1.21,-1.32,6.76,-1.05,-1.58,-3.16,-0.13,-0.06,-0.09,6261,2019-04-03 15:55:11:017
-1.21,-1.32,6.76,-1.05,-1.58,-3.16,-0.13,-0.06,-0.09,6267,2019-04-03 15:55:11:023
-1.21,-1.32,6.76,-1.05,-1.58,-3.16,-0.13,-0.06,-0.09,6272,2019-04-03 15:55:11:028
-1.21,-1.32,6.76,-1.05,-1.58,-3.16,-0.13,-0.06,-0.09,6277,2019-04-03 15:55:11:033
-1.21,-1.32,6.76,-1.05,-1.58,-3.16,-0.13,-0.06,-0.09,6281,2019-04-03 15:55:11:037
0.83,1.96,9.52,0.87,1.63,-0.58,0.01,-0.03,-0.19,6287,2019-04-03 15:55:11:043
0.83,1.96,9.52,0.87,1.63,-0.58,0.01,-0.03,-0.19,6292,2019-04-03 15:55:11:048
0.83,1.96,9.52,0.87,1.63,-0.58,0.01,-0.03,-0.19,6298,2019-04-03 15:55:11:054
0.83,1.96,9.52,0.87,1.63,-0.58,0.01,-0.03,-0.19,6302,2019-04-03 15:55:11:058
0.83,1.96,9.52,0.87,1.63,-0.58,0.01,-0.03,-0.19,6307,2019-04-03 15:55:11:063
0.83,1.96,9.52,0.87,1.63,-0.58,0.01,-0.03,-0.19,6313,2019-04-03 15:55:11:069
0.83,1.96,9.52,0.87,1.63,-0.58,0.01,-0.03,-0.19,6317,2019-04-03 15:55:11:073
-2.34,4.66,7.96,-2.27,3.59,-2.07,-0.21,0.03,-0.13,6322,2019-04-03 15:55:11:078
-2.34,4.66,7.96,-2.27,3.59,-2.07,-0.21,0.03,-0.13,6327,2019-04-03 15:55:11:083
-2.34,4.66,7.96,-2.27,3.59,-2.07,-0.21,0.03,-0.13,6334,2019-04-03 15:55:11:090
-2.34,4.66,7.96,-2.27,3.59,-2.07,-0.21,0.03,-0.13,6337,2019-04-03 15:55:11:093
2.69,2.08,4.73,2.58,0.51,-4.76,0.01,-0.24,-0.14,6344,2019-04-03 15:55:11:100
2.69,2.08,4.73,2.58,0.51,-4.76,0.01,-0.24,-0.14,6347,2019-04-03 15:55:11:103
2.69,2.08,4.73,2.58,0.51,-4.76,-0.02,-0.09,-0.01,6354,2019-04-03 15:55:11:110
2.69,2.08,4.73,2.58,0.51,-4.76,-0.02,-0.09,-0.01,6357,2019-04-03 15:55:11:113
2.69,2.08,4.73,2.58,0.51,-4.76,-0.02,-0.09,-0.01,6361,2019-04-03 15:55:11:117
2.69,2.08,4.73,2.58,0.51,-4.76,-0.02,-0.09,-0.01,6367,2019-04-03 15:55:11:123
2.69,2.08,4.73,2.58,0.51,-4.76,-0.02,-0.09,-0.01,6372,2019-04-03 15:55:11:128
2.69,2.08,4.73,2.58,0.51,-4.76,-0.02,-0.09,-0.01,6377,2019-04-03 15:55:11:133
2.69,2.08,4.73,2.58,0.51,-4.76,-0.02,-0.09,-0.01,6381,2019-04-03 15:55:11:137
6.37,-0.49,14.99,5.66,-1.78,5.1,0.01,-0.28,0.01,6387,2019-04-03 15:55:11:143
6.37,-0.49,14.99,5.66,-1.78,5.1,0.01,-0.28,0.01,6391,2019-04-03 15:55:11:147
6.37,-0.49,14.99,5.66,-1.78,5.1,0.01,-0.28,0.01,6398,2019-04-03 15:55:11:154
6.37,-0.49,14.99,5.66,-1.78,5.1,0.01,-0.28,0.01,6403,2019-04-03 15:55:11:159
6.37,-0.49,14.99,5.66,-1.78,5.1,0.01,-0.28,0.01,6407,2019-04-03 15:55:11:163
-6.64,-3.68,5.27,-6.97,-4.53,-4.22,-0.25,-0.26,0.05,6412,2019-04-03 15:55:11:168
-6.64,-3.68,5.27,-6.97,-4.53,-4.22,-0.25,-0.26,0.05,6417,2019-04-03 15:55:11:173
-6.64,-3.68,5.27,-6.97,-4.53,-4.22,-0.25,-0.26,0.05,6422,2019-04-03 15:55:11:178
-6.64,-3.68,5.27,-6.97,-4.53,-4.22,-0.25,-0.26,0.05,6427,2019-04-03 15:55:11:183
-6.64,-3.68,5.27,-6.97,-4.53,-4.22,-0.25,-0.26,0.05,6432,2019-04-03 15:55:11:188
6.04,-2.33,14.77,5.27,-3.34,5.06,0.12,-0.44,-0.02,6437,2019-04-03 15:55:11:193
6.04,-2.33,14.77,5.27,-3.34,5.06,0.12,-0.44,-0.02,6442,2019-04-03 15:55:11:198
6.04,-2.33,14.77,5.27,-3.34,5.06,0.12,-0.44,-0.02,6447,2019-04-03 15:55:11:203
1.89,4.53,14.19,5.27,-3.34,5.06,0.08,0.31,0.08,6452,2019-04-03 15:55:11:208
1.89,4.53,14.19,1.26,3.12,3.97,0.08,0.31,0.08,6457,2019-04-03 15:55:11:213
1.89,4.53,14.19,1.26,3.12,3.97,0.08,0.31,0.08,6461,2019-04-03 15:55:11:217
1.89,4.53,14.19,1.26,3.12,3.97,0.08,0.31,0.08,6467,2019-04-03 15:55:11:223
1.89,4.53,14.19,1.26,3.12,3.97,0.08,0.31,0.08,6472,2019-04-03 15:55:11:228
-2.92,-0.96,6.92,1.26,3.12,3.97,-0.3,0.13,0.0,6482,2019-04-03 15:55:11:238
-2.92,-0.96,6.92,1.26,3.12,3.97,-0.3,0.13,0.0,6482,2019-04-03 15:55:11:238
-2.92,-0.96,6.92,-3.5,-2.11,-3.16,-0.3,0.13,0.0,6487,2019-04-03 15:55:11:243
-2.92,-0.96,6.92,-3.5,-2.11,-3.16,0.15,-0.32,-0.09,6492,2019-04-03 15:55:11:248
-2.92,-0.96,6.92,-3.5,-2.11,-3.16,0.15,-0.32,-0.09,6497,2019-04-03 15:55:11:253
-2.92,-0.96,6.92,-3.5,-2.11,-3.16,0.15,-0.32,-0.09,6503,2019-04-03 15:55:11:259
-2.92,-0.96,6.92,-3.5,-2.11,-3.16,0.15,-0.32,-0.09,6506,2019-04-03 15:55:11:262
6.7,1.81,6.87,-3.5,-2.11,-3.16,0.16,0.21,0.04,6512,2019-04-03 15:55:11:268
6.7,1.81,6.87,5.7,1.13,-3.07,0.16,0.21,0.04,6519,2019-04-03 15:55:11:275
6.7,1.81,6.87,5.7,1.13,-3.07,0.16,0.21,0.04,6522,2019-04-03 15:55:11:278
6.7,1.81,6.87,5.7,1.13,-3.07,0.16,0.21,0.04,6527,2019-04-03 15:55:11:283
6.7,1.81,6.87,5.7,1.13,-3.07,0.16,0.21,0.04,6532,2019-04-03 15:55:11:288
6.7,1.81,6.87,5.7,1.13,-3.07,0.16,0.21,0.04,6537,2019-04-03 15:55:11:293
-1.84,-0.49,5.35,-2.54,-0.61,-4.65,-0.11,0.28,0.05,6546,2019-04-03 15:55:11:302
-1.84,-0.49,5.35,-2.54,-0.61,-4.65,-0.11,0.28,0.05,6547,2019-04-03 15:55:11:303
-1.84,-0.49,5.35,-2.54,-0.61,-4.65,0.06,-0.09,0.01,6552,2019-04-03 15:55:11:308
-1.84,-0.49,5.35,-2.54,-0.61,-4.65,0.06,-0.09,0.01,6557,2019-04-03 15:55:11:313
-1.84,-0.49,5.35,-2.54,-0.61,-4.65,0.06,-0.09,0.01,6562,2019-04-03 15:55:11:318
-1.84,-0.49,5.35,-2.54,-0.61,-4.65,0.06,-0.09,0.01,6567,2019-04-03 15:55:11:323
-1.84,-0.49,5.35,-2.54,-0.61,-4.65,0.06,-0.09,0.01,6572,2019-04-03 15:55:11:328
-1.84,-0.49,5.35,-2.54,-0.61,-4.65,0.06,-0.09,0.01,6577,2019-04-03 15:55:11:333
0.5,2.85,11.97,0.16,2.59,2.29,0.23,0.18,0.07,6582,2019-04-03 15:55:11:338
0.5,2.85,11.97,0.16,2.59,2.29,0.23,0.18,0.07,6588,2019-04-03 15:55:11:344
0.5,2.85,11.97,0.16,2.59,2.29,0.33,0.31,0.13,6592,2019-04-03 15:55:11:348
0.5,2.85,11.97,0.16,2.59,2.29,0.33,0.31,0.13,6598,2019-04-03 15:55:11:354
0.5,2.85,11.97,0.16,2.59,2.29,0.33,0.31,0.13,6602,2019-04-03 15:55:11:358
0.5,2.85,11.97,0.16,2.59,2.29,0.33,0.31,0.13,6607,2019-04-03 15:55:11:363
3.72,-3.15,16.42,0.16,2.59,2.29,0.33,0.31,0.13,6612,2019-04-03 15:55:11:368
3.72,-3.15,16.42,2.79,-3.61,6.02,-0.04,-0.38,-0.05,6618,2019-04-03 15:55:11:374
3.72,-3.15,16.42,2.79,-3.61,6.02,-0.04,-0.38,-0.05,6622,2019-04-03 15:55:11:378
3.72,-3.15,16.42,2.79,-3.61,6.02,-0.04,-0.38,-0.05,6628,2019-04-03 15:55:11:384
3.72,-3.15,16.42,2.79,-3.61,6.02,-0.04,-0.38,-0.05,6631,2019-04-03 15:55:11:387
3.72,-3.15,16.42,2.79,-3.61,6.02,-0.04,-0.38,-0.05,6637,2019-04-03 15:55:11:393
4.81,2.41,7.05,4.38,1.81,-2.88,0.36,0.25,0.07,6645,2019-04-03 15:55:11:401
4.81,2.41,7.05,4.38,1.81,-2.88,0.36,0.25,0.07,6647,2019-04-03 15:55:11:403
4.81,2.41,7.05,3.28,1.24,-2.23,-0.27,0.22,0.09,6652,2019-04-03 15:55:11:408
4.81,2.41,7.05,3.28,1.24,-2.23,-0.27,0.22,0.09,6657,2019-04-03 15:55:11:413
4.81,2.41,7.05,3.28,1.24,-2.23,-0.27,0.22,0.09,6662,2019-04-03 15:55:11:418
4.81,2.41,7.05,3.28,1.24,-2.23,-0.27,0.22,0.09,6667,2019-04-03 15:55:11:423
-1.17,-5.09,9.17,-1.8,-4.9,-0.42,0.0,-0.25,-0.03,6672,2019-04-03 15:55:11:428
-1.17,-5.09,9.17,-1.8,-4.9,-0.42,0.0,-0.25,-0.03,6679,2019-04-03 15:55:11:435
-1.17,-5.09,9.17,-1.8,-4.9,-0.42,0.0,-0.25,-0.03,6684,2019-04-03 15:55:11:440
-1.17,-5.09,9.17,-1.8,-4.9,-0.42,0.0,-0.25,-0.03,6687,2019-04-03 15:55:11:443
-1.17,-5.09,9.17,-1.8,-4.9,-0.42,0.0,-0.25,-0.03,6692,2019-04-03 15:55:11:448
2.56,4.91,14.1,2.11,5.03,4.31,0.25,-0.11,-0.02,6697,2019-04-03 15:55:11:453
2.56,4.91,14.1,2.11,5.03,4.31,0.25,-0.11,-0.02,6702,2019-04-03 15:55:11:458
2.56,4.91,14.1,2.11,5.03,4.31,0.25,-0.11,-0.02,6707,2019-04-03 15:55:11:463
2.56,4.91,14.1,2.11,5.03,4.31,0.25,-0.11,-0.02,6712,2019-04-03 15:55:11:468
-0.65,5.3,7.64,2.98,4.04,-2.61,-0.07,0.1,0.05,6718,2019-04-03 15:55:11:474
-0.65,5.3,7.64,2.98,4.04,-2.61,-0.07,0.1,0.05,6722,2019-04-03 15:55:11:478
-0.65,5.3,7.64,2.98,4.04,-2.61,-0.07,0.1,0.05,6726,2019-04-03 15:55:11:482
-0.65,5.3,7.64,2.98,4.04,-2.61,-0.07,0.1,0.05,6732,2019-04-03 15:55:11:488
1.39,3.46,9.6,0.93,2.95,-0.66,0.1,0.14,0.08,6738,2019-04-03 15:55:11:494
1.39,3.46,9.6,0.93,2.95,-0.66,0.1,0.14,0.08,6743,2019-04-03 15:55:11:499
1.39,3.46,9.6,0.93,2.95,-0.66,0.1,0.14,0.08,6747,2019-04-03 15:55:11:503
-1.52,-0.22,12.48,-1.83,-1.0,2.09,0.12,0.02,0.06,6754,2019-04-03 15:55:11:510
-1.52,-0.22,12.48,-1.83,-1.0,2.09,0.12,0.02,0.06,6757,2019-04-03 15:55:11:513
-1.52,-0.22,12.48,-1.83,-1.0,2.09,0.12,0.02,0.06,6763,2019-04-03 15:55:11:519
-1.52,-0.22,12.48,-1.83,-1.0,2.09,0.12,0.02,0.06,6767,2019-04-03 15:55:11:523
-1.52,-0.22,12.48,-1.83,-1.0,2.09,0.12,0.02,0.06,6772,2019-04-03 15:55:11:528
-1.52,-0.22,12.48,-1.83,-1.0,2.09,0.12,0.02,0.06,6777,2019-04-03 15:55:11:533
-1.52,-0.22,12.48,-1.83,-1.0,2.09,0.12,0.02,0.06,6782,2019-04-03 15:55:11:538
2.76,-0.18,10.08,2.37,-0.57,-0.22,0.08,-0.04,-0.01,6788,2019-04-03 15:55:11:544
2.76,-0.18,10.08,2.37,-0.57,-0.22,0.08,-0.04,-0.01,6792,2019-04-03 15:55:11:548
2.76,-0.18,10.08,2.37,-0.57,-0.22,0.08,-0.04,-0.01,6797,2019-04-03 15:55:11:553
2.76,-0.18,10.08,2.37,-0.57,-0.22,0.08,-0.04,-0.01,6802,2019-04-03 15:55:11:558
2.76,-0.18,10.08,2.37,-0.57,-0.22,0.08,-0.04,-0.01,6807,2019-04-03 15:55:11:563
0.23,-1.24,6.99,2.37,-0.57,-0.22,0.08,-0.04,-0.01,6812,2019-04-03 15:55:11:568
0.23,-1.24,6.99,-0.03,-1.59,-2.72,0.05,-0.19,-0.01,6818,2019-04-03 15:55:11:574
0.23,-1.24,6.99,-0.03,-1.59,-2.72,0.05,-0.19,-0.01,6822,2019-04-03 15:55:11:578
0.23,-1.24,6.99,-0.03,-1.59,-2.72,0.05,-0.19,-0.01,6828,2019-04-03 15:55:11:584
0.23,-1.24,6.99,-0.03,-1.59,-2.72,0.05,-0.19,-0.01,6832,2019-04-03 15:55:11:588
5.02,1.93,7.09,4.56,1.5,-2.62,0.12,0.04,0.0,6838,2019-04-03 15:55:11:594
5.02,1.93,7.09,4.56,1.5,-2.62,0.12,0.04,0.0,6842,2019-04-03 15:55:11:598
5.02,1.93,7.09,4.56,1.5,-2.62,0.12,0.04,0.0,6847,2019-04-03 15:55:11:603
-0.46,1.66,10.1,-0.99,0.74,0.39,-0.04,0.3,0.06,6854,2019-04-03 15:55:11:610
-0.46,1.66,10.1,-0.99,0.74,0.39,-0.04,0.3,0.06,6857,2019-04-03 15:55:11:613
-0.46,1.66,10.1,-0.99,0.74,0.39,-0.04,0.3,0.06,6862,2019-04-03 15:55:11:618
-0.46,1.66,10.1,-0.99,0.74,0.39,-0.04,0.3,0.06,6868,2019-04-03 15:55:11:624
-5.35,1.49,11.26,-5.7,0.22,1.09,-0.02,-0.02,0.04,6872,2019-04-03 15:55:11:628
-5.35,1.49,11.26,-5.7,0.22,1.09,-0.02,-0.02,0.04,6877,2019-04-03 15:55:11:633
-5.35,1.49,11.26,-5.7,0.22,1.09,-0.02,-0.02,0.04,6882,2019-04-03 15:55:11:638
-5.35,1.49,11.26,-5.7,0.22,1.09,-0.02,-0.02,0.04,6888,2019-04-03 15:55:11:644
2.32,2.75,13.85,1.92,1.44,3.55,0.04,-0.33,-0.01,6892,2019-04-03 15:55:11:648
2.32,2.75,13.85,1.92,1.44,3.55,0.04,-0.33,-0.01,6897,2019-04-03 15:55:11:653
2.32,2.75,13.85,1.92,1.44,3.55,0.04,-0.33,-0.01,6902,2019-04-03 15:55:11:658
2.32,2.75,13.85,1.92,1.44,3.55,0.04,-0.33,-0.01,6908,2019-04-03 15:55:11:664
1.46,-0.65,11.52,1.14,-1.69,0.98,-0.02,0.04,0.03,6914,2019-04-03 15:55:11:670
1.46,-0.65,11.52,1.14,-1.69,0.98,-0.02,0.04,0.03,6919,2019-04-03 15:55:11:675
1.46,-0.65,11.52,1.14,-1.69,0.98,-0.02,0.04,0.03,6921,2019-04-03 15:55:11:677
1.46,-0.65,11.52,1.14,-1.69,0.98,-0.02,0.04,0.03,6928,2019-04-03 15:55:11:684
1.46,-0.65,11.52,1.14,-1.69,0.98,-0.02,0.04,0.03,6932,2019-04-03 15:55:11:688
1.62,-3.27,10.96,1.32,-3.49,0.24,-0.08,0.07,0.01,6938,2019-04-03 15:55:11:694
1.62,-3.27,10.96,1.32,-3.49,0.24,-0.08,0.07,0.01,6943,2019-04-03 15:55:11:699
1.62,-3.27,10.96,1.32,-3.49,0.24,-0.08,0.07,0.01,6947,2019-04-03 15:55:11:703
-2.47,0.65,8.12,-2.64,0.58,-2.21,0.08,0.05,0.04,6952,2019-04-03 15:55:11:708
-2.47,0.65,8.12,-2.64,0.58,-2.21,0.08,0.05,0.04,6957,2019-04-03 15:55:11:713
-2.47,0.65,8.12,-2.64,0.58,-2.21,0.08,0.05,0.04,6963,2019-04-03 15:55:11:719
-2.47,0.65,8.12,-2.64,0.58,-2.21,0.08,0.05,0.04,6968,2019-04-03 15:55:11:724
2.04,-0.41,14.27,1.72,-0.42,3.47,-0.06,-0.2,0.0,6971,2019-04-03 15:55:11:727
2.04,-0.41,14.27,1.72,-0.42,3.47,-0.06,-0.2,0.0,6978,2019-04-03 15:55:11:734
2.04,-0.41,14.27,1.72,-0.42,3.47,-0.06,-0.2,0.0,6982,2019-04-03 15:55:11:738
2.04,-0.41,14.27,1.72,-0.42,3.47,-0.06,-0.2,0.0,6987,2019-04-03 15:55:11:743
3.63,-0.35,15.65,3.34,-0.51,4.78,-0.05,0.13,0.02,6992,2019-04-03 15:55:11:748
3.63,-0.35,15.65,3.34,-0.51,4.78,-0.05,0.13,0.02,6999,2019-04-03 15:55:11:755
3.63,-0.35,15.65,3.34,-0.51,4.78,-0.05,0.13,0.02,7002,2019-04-03 15:55:11:758
3.63,-0.35,15.65,3.34,-0.51,4.78,-0.05,0.13,0.02,7007,2019-04-03 15:55:11:763
-4.7,4.54,7.71,3.34,-0.51,4.78,0.13,0.27,0.02,7012,2019-04-03 15:55:11:768
-4.7,4.54,7.71,-4.61,3.99,-3.14,0.13,0.27,0.02,7018,2019-04-03 15:55:11:774
-4.7,4.54,7.71,-4.61,3.99,-3.14,0.13,0.27,0.02,7022,2019-04-03 15:55:11:778
-4.7,4.54,7.71,-4.61,3.99,-3.14,0.13,0.27,0.02,7028,2019-04-03 15:55:11:784
-4.29,3.07,3.4,-4.13,2.53,-7.55,-0.11,-0.21,-0.09,7033,2019-04-03 15:55:11:789
-4.29,3.07,3.4,-4.13,2.53,-7.55,-0.11,-0.21,-0.09,7038,2019-04-03 15:55:11:794
-4.29,3.07,3.4,-4.13,2.53,-7.55,-0.11,-0.21,-0.09,7042,2019-04-03 15:55:11:798
-4.29,3.07,3.4,-4.13,2.53,-7.55,-0.11,-0.21,-0.09,7047,2019-04-03 15:55:11:803
4.74,2.82,4.19,4.5,2.03,-6.34,0.0,-0.22,-0.12,7052,2019-04-03 15:55:11:808
4.74,2.82,4.19,4.5,2.03,-6.34,0.0,-0.22,-0.12,7057,2019-04-03 15:55:11:813
4.74,2.82,4.19,4.5,2.03,-6.34,0.0,-0.22,-0.12,7064,2019-04-03 15:55:11:820
4.74,2.82,4.19,4.5,2.03,-6.34,0.0,-0.22,-0.12,7068,2019-04-03 15:55:11:824
-1.41,5.59,7.56,4.5,2.03,-6.34,0.16,0.21,-0.05,7072,2019-04-03 15:55:11:828
-1.41,5.59,7.56,-1.54,4.41,-2.47,0.16,0.21,-0.05,7077,2019-04-03 15:55:11:833
-1.41,5.59,7.56,-1.54,4.41,-2.47,0.16,0.21,-0.05,7084,2019-04-03 15:55:11:840
-1.41,5.59,7.56,-1.54,4.41,-2.47,0.16,0.21,-0.05,7087,2019-04-03 15:55:11:843
-1.41,5.59,7.56,-1.54,4.41,-2.47,0.16,0.21,-0.05,7092,2019-04-03 15:55:11:848
-1.41,5.59,7.56,-1.54,4.41,-2.47,0.16,0.21,-0.05,7097,2019-04-03 15:55:11:853
-1.32,1.37,11.58,-1.53,0.26,1.66,-0.09,-0.19,-0.07,7102,2019-04-03 15:55:11:858
-1.32,1.37,11.58,-1.53,0.26,1.66,-0.09,-0.19,-0.07,7107,2019-04-03 15:55:11:863
-1.32,1.37,11.58,-1.53,0.26,1.66,0.06,-0.13,-0.03,7114,2019-04-03 15:55:11:870
-1.32,1.37,11.58,-1.97,-2.53,-2.54,0.06,-0.13,-0.03,7118,2019-04-03 15:55:11:874
-1.32,1.37,11.58,-1.97,-2.53,-2.54,0.06,-0.13,-0.03,7122,2019-04-03 15:55:11:878
-1.32,1.37,11.58,-1.97,-2.53,-2.54,0.06,-0.13,-0.03,7128,2019-04-03 15:55:11:884
5.43,-2.09,8.01,5.15,-3.5,-1.68,0.05,-0.09,-0.05,7133,2019-04-03 15:55:11:889
5.43,-2.09,8.01,5.15,-3.5,-1.68,0.05,-0.09,-0.05,7138,2019-04-03 15:55:11:894
5.43,-2.09,8.01,5.15,-3.5,-1.68,0.05,-0.09,-0.05,7142,2019-04-03 15:55:11:898
5.43,-2.09,8.01,5.15,-3.5,-1.68,0.05,-0.09,-0.05,7147,2019-04-03 15:55:11:903
2.71,-0.72,9.09,5.15,-3.5,-1.68,0.07,0.19,0.0,7152,2019-04-03 15:55:11:908
2.71,-0.72,9.09,2.39,-2.04,-0.31,0.07,0.19,0.0,7156,2019-04-03 15:55:11:912
2.71,-0.72,9.09,2.39,-2.04,-0.31,0.07,0.19,0.0,7162,2019-04-03 15:55:11:918
2.71,-0.72,9.09,2.39,-2.04,-0.31,0.07,0.19,0.0,7168,2019-04-03 15:55:11:924
1.47,-0.68,9.23,1.21,-2.05,0.4,-0.01,0.08,-0.02,7172,2019-04-03 15:55:11:928
1.47,-0.68,9.23,1.21,-2.05,0.4,-0.01,0.08,-0.02,7177,2019-04-03 15:55:11:933
1.47,-0.68,9.23,1.21,-2.05,0.4,-0.01,0.08,-0.02,7182,2019-04-03 15:55:11:938
1.47,-0.68,9.23,1.21,-2.05,0.4,-0.01,0.08,-0.02,7187,2019-04-03 15:55:11:943
-0.23,-0.55,11.3,-0.78,-1.94,2.65,0.1,0.01,-0.01,7192,2019-04-03 15:55:11:948
-0.23,-0.55,11.3,-0.78,-1.94,2.65,0.1,0.01,-0.01,7198,2019-04-03 15:55:11:954
-0.23,-0.55,11.3,-0.78,-1.94,2.65,0.1,0.01,-0.01,7202,2019-04-03 15:55:11:958
-0.23,-0.55,11.3,-0.78,-1.94,2.65,0.1,0.01,-0.01,7207,2019-04-03 15:55:11:963
1.72,3.26,10.11,-0.78,-1.94,2.65,0.1,0.01,-0.01,7213,2019-04-03 15:55:11:969
1.72,3.26,10.11,0.86,2.11,1.33,-0.02,-0.04,-0.05,7218,2019-04-03 15:55:11:974
1.72,3.26,10.11,0.86,2.11,1.33,-0.02,-0.04,-0.05,7222,2019-04-03 15:55:11:978
2.22,0.11,11.73,0.86,2.11,1.33,-0.08,0.0,-0.05,7229,2019-04-03 15:55:11:985
2.22,0.11,11.73,0.86,2.11,1.33,-0.08,0.0,-0.05,7232,2019-04-03 15:55:11:988
2.22,0.11,11.73,1.23,-0.93,2.65,-0.08,0.0,-0.05,7237,2019-04-03 15:55:11:993
2.22,0.11,11.73,1.23,-0.93,2.65,-0.08,0.0,-0.05,7243,2019-04-03 15:55:11:999
2.22,0.11,11.73,1.23,-0.93,2.65,-0.08,0.0,-0.05,7247,2019-04-03 15:55:12:003
2.37,1.07,9.88,1.77,0.33,0.34,0.02,0.05,-0.05,7252,2019-04-03 15:55:12:008
2.37,1.07,9.88,1.77,0.33,0.34,0.02,0.05,-0.05,7257,2019-04-03 15:55:12:013
2.37,1.07,9.88,1.77,0.33,0.34,-0.16,0.0,-0.03,7261,2019-04-03 15:55:12:017
-0.93,3.59,7.78,-1.42,3.18,-1.49,-0.16,0.0,-0.03,7269,2019-04-03 15:55:12:025
-0.93,3.59,7.78,-1.42,3.18,-1.49,-0.16,0.0,-0.03,7273,2019-04-03 15:55:12:029
-0.93,3.59,7.78,-1.42,3.18,-1.49,-0.16,0.0,-0.03,7277,2019-04-03 15:55:12:033
-0.93,3.59,7.78,-1.42,3.18,-1.49,-0.16,0.0,-0.03,7282,2019-04-03 15:55:12:038
-0.93,3.59,7.78,-1.42,3.18,-1.49,-0.16,0.0,-0.03,7287,2019-04-03 15:55:12:043
4.79,0.24,12.93,3.98,-0.1,3.57,-0.09,-0.07,-0.02,7291,2019-04-03 15:55:12:047
4.79,0.24,12.93,3.98,-0.1,3.57,-0.09,-0.07,-0.02,7297,2019-04-03 15:55:12:053
4.79,0.24,12.93,3.98,-0.1,3.57,0.04,0.18,0.07,7302,2019-04-03 15:55:12:058
4.79,0.24,12.93,3.98,-0.1,3.57,0.04,0.18,0.07,7307,2019-04-03 15:55:12:063
4.79,0.24,12.93,3.98,-0.1,3.57,0.04,0.18,0.07,7312,2019-04-03 15:55:12:068
4.79,0.24,12.93,3.98,-0.1,3.57,0.04,0.18,0.07,7318,2019-04-03 15:55:12:074
2.8,-2.34,9.82,1.83,-2.64,0.3,-0.22,-0.42,0.0,7322,2019-04-03 15:55:12:078
2.8,-2.34,9.82,1.83,-2.64,0.3,-0.22,-0.42,0.0,7327,2019-04-03 15:55:12:083
2.8,-2.34,9.82,1.83,-2.64,0.3,-0.22,-0.42,0.0,7333,2019-04-03 15:55:12:089
2.8,-2.34,9.82,1.83,-2.64,0.3,-0.22,-0.42,0.0,7337,2019-04-03 15:55:12:093
3.94,-1.93,11.12,3.15,-2.21,1.67,0.08,0.14,0.08,7342,2019-04-03 15:55:12:098
3.94,-1.93,11.12,3.15,-2.21,1.67,0.08,0.14,0.08,7348,2019-04-03 15:55:12:104
3.94,-1.93,11.12,3.15,-2.21,1.67,0.08,0.14,0.08,7353,2019-04-03 15:55:12:109
3.94,-1.93,11.12,3.15,-2.21,1.67,0.08,0.14,0.08,7357,2019-04-03 15:55:12:113
-0.68,-1.15,12.27,-1.53,-1.29,2.64,-0.03,0.16,0.1,7367,2019-04-03 15:55:12:123
-0.68,-1.15,12.27,-1.53,-1.29,2.64,-0.03,0.16,0.1,7376,2019-04-03 15:55:12:132
-0.68,-1.15,12.27,-1.53,-1.29,2.64,-0.03,0.16,0.1,7380,2019-04-03 15:55:12:136
-0.68,-1.15,12.27,-1.53,-1.29,2.64,-0.03,0.16,0.1,7381,2019-04-03 15:55:12:137
-0.68,-1.15,12.27,-1.53,-1.29,2.64,-0.03,0.16,0.1,7381,2019-04-03 15:55:12:137
1.08,0.86,13.83,0.41,0.62,4.17,-0.02,0.01,0.03,7387,2019-04-03 15:55:12:143
1.08,0.86,13.83,0.41,0.62,4.17,-0.02,0.01,0.03,7392,2019-04-03 15:55:12:148
1.08,0.86,13.83,0.41,0.62,4.17,-0.02,0.01,0.03,7397,2019-04-03 15:55:12:153
-0.07,-1.09,11.6,-0.7,-1.22,1.62,0.05,0.07,0.05,7402,2019-04-03 15:55:12:158
-0.07,-1.09,11.6,-0.7,-1.22,1.62,0.05,0.07,0.05,7407,2019-04-03 15:55:12:163
-0.07,-1.09,11.6,-0.7,-1.22,1.62,0.05,0.07,0.05,7412,2019-04-03 15:55:12:168
-0.07,-1.09,11.6,-0.7,-1.22,1.62,0.05,0.07,0.05,7417,2019-04-03 15:55:12:173
2.23,-0.42,9.15,1.75,-0.44,-0.66,-0.01,0.04,-0.01,7422,2019-04-03 15:55:12:178
2.23,-0.42,9.15,1.75,-0.44,-0.66,-0.01,0.04,-0.01,7428,2019-04-03 15:55:12:184
2.23,-0.42,9.15,1.75,-0.44,-0.66,-0.01,0.04,-0.01,7434,2019-04-03 15:55:12:190
2.23,-0.42,9.15,1.75,-0.44,-0.66,-0.01,0.04,-0.01,7438,2019-04-03 15:55:12:194
2.23,-0.42,9.15,1.75,-0.44,-0.66,-0.01,0.04,-0.01,7442,2019-04-03 15:55:12:198
2.23,-0.42,9.15,1.75,-0.44,-0.66,-0.01,0.04,-0.01,7447,2019-04-03 15:55:12:203
-2.69,-1.27,5.72,-3.12,-1.16,-3.86,0.01,0.09,-0.01,7451,2019-04-03 15:55:12:207
-2.69,-1.27,5.72,-3.12,-1.16,-3.86,0.01,0.09,-0.01,7458,2019-04-03 15:55:12:214
2.43,-1.47,11.57,1.93,-1.12,1.68,0.03,-0.14,-0.08,7463,2019-04-03 15:55:12:219
2.43,-1.47,11.57,1.93,-1.12,1.68,0.03,-0.14,-0.08,7468,2019-04-03 15:55:12:224
2.43,-1.47,11.57,1.93,-1.12,1.68,0.03,-0.14,-0.08,7472,2019-04-03 15:55:12:228
2.43,-1.47,11.57,1.93,-1.12,1.68,0.03,-0.14,-0.08,7477,2019-04-03 15:55:12:233
-1.79,-0.14,7.28,-1.93,0.37,-2.22,0.1,0.21,0.0,7483,2019-04-03 15:55:12:239
-1.79,-0.14,7.28,-1.93,0.37,-2.22,0.1,0.21,0.0,7487,2019-04-03 15:55:12:243
-1.79,-0.14,7.28,-1.93,0.37,-2.22,0.1,0.21,0.0,7492,2019-04-03 15:55:12:248
-1.79,-0.14,7.28,-1.93,0.37,-2.22,0.1,0.21,0.0,7497,2019-04-03 15:55:12:253
-5.28,0.84,6.51,-1.93,0.37,-2.22,0.04,-0.09,-0.03,7502,2019-04-03 15:55:12:258
-5.28,0.84,6.51,-5.62,1.46,-3.17,0.04,-0.09,-0.03,7507,2019-04-03 15:55:12:263
-5.28,0.84,6.51,-5.62,1.46,-3.17,0.04,-0.09,-0.03,7512,2019-04-03 15:55:12:268
-5.28,0.84,6.51,-5.62,1.46,-3.17,0.04,-0.09,-0.03,7517,2019-04-03 15:55:12:273
-5.28,0.84,6.51,-5.62,1.46,-3.17,0.04,-0.09,-0.03,7522,2019-04-03 15:55:12:278
-5.28,0.84,6.51,-5.62,1.46,-3.17,0.04,-0.09,-0.03,7528,2019-04-03 15:55:12:284
4.55,1.17,16.57,4.39,1.55,6.54,0.05,-0.34,-0.05,7531,2019-04-03 15:55:12:287
4.55,1.17,16.57,4.39,1.55,6.54,0.05,-0.34,-0.05,7537,2019-04-03 15:55:12:293
4.55,1.17,16.57,4.39,1.55,6.54,0.05,0.23,0.09,7542,2019-04-03 15:55:12:298
4.55,1.17,16.57,4.39,1.55,6.54,0.05,0.23,0.09,7547,2019-04-03 15:55:12:303
4.55,1.17,16.57,4.39,1.55,6.54,0.05,0.23,0.09,7553,2019-04-03 15:55:12:309
4.55,1.17,16.57,4.39,1.55,6.54,0.05,0.23,0.09,7558,2019-04-03 15:55:12:314
4.55,1.17,16.57,4.39,1.55,6.54,0.05,0.23,0.09,7562,2019-04-03 15:55:12:318
-1.69,2.97,9.78,-1.79,2.73,-1.12,0.17,0.14,0.1,7567,2019-04-03 15:55:12:323
-1.69,2.97,9.78,-1.79,2.73,-1.12,0.17,0.14,0.1,7572,2019-04-03 15:55:12:328
-1.69,2.97,9.78,-1.79,2.73,-1.12,0.17,0.14,0.1,7577,2019-04-03 15:55:12:333
-0.32,2.64,14.57,-0.7,2.19,3.31,0.06,-0.09,0.14,7581,2019-04-03 15:55:12:337
-0.32,2.64,14.57,-0.7,2.19,3.31,0.06,-0.09,0.14,7587,2019-04-03 15:55:12:343
-0.32,2.64,14.57,-0.7,2.19,3.31,0.06,-0.09,0.14,7592,2019-04-03 15:55:12:348
-0.32,2.64,14.57,-0.7,2.19,3.31,0.06,-0.09,0.14,7597,2019-04-03 15:55:12:353
-0.32,-2.52,9.72,-0.72,-2.63,-1.24,-0.24,-0.04,0.17,7602,2019-04-03 15:55:12:358
-0.32,-2.52,9.72,-0.72,-2.63,-1.24,-0.24,-0.04,0.17,7607,2019-04-03 15:55:12:363
-0.32,-2.52,9.72,-0.72,-2.63,-1.24,-0.24,-0.04,0.17,7612,2019-04-03 15:55:12:368
-0.32,-2.52,9.72,-0.72,-2.63,-1.24,-0.24,-0.04,0.17,7619,2019-04-03 15:55:12:375
2.62,1.47,8.82,2.03,1.13,-2.02,0.27,-0.11,0.15,7622,2019-04-03 15:55:12:378
2.62,1.47,8.82,2.03,1.13,-2.02,0.27,-0.11,0.15,7628,2019-04-03 15:55:12:384
2.62,1.47,8.82,2.03,1.13,-2.02,0.27,-0.11,0.15,7634,2019-04-03 15:55:12:390
2.62,1.47,8.82,2.03,1.13,-2.02,0.27,-0.11,0.15,7637,2019-04-03 15:55:12:393
2.62,1.47,8.82,2.03,1.13,-2.02,0.27,-0.11,0.15,7642,2019-04-03 15:55:12:398
2.62,1.47,8.82,2.03,1.13,-2.02,0.27,-0.11,0.15,7648,2019-04-03 15:55:12:404
3.8,1.54,11.31,3.19,1.25,0.07,-0.16,0.1,0.24,7652,2019-04-03 15:55:12:408
3.8,1.54,11.31,3.19,1.25,0.07,-0.16,0.1,0.24,7657,2019-04-03 15:55:12:413
3.8,1.54,11.31,3.19,1.25,0.07,-0.16,0.1,0.24,7662,2019-04-03 15:55:12:418
3.8,1.54,11.31,3.19,1.25,0.07,-0.12,0.23,0.31,7668,2019-04-03 15:55:12:424
3.8,1.54,11.31,3.19,1.25,0.07,-0.12,0.23,0.31,7672,2019-04-03 15:55:12:428
3.8,1.54,11.31,3.19,1.25,0.07,-0.12,0.23,0.31,7678,2019-04-03 15:55:12:434
-2.71,2.61,11.73,-3.24,1.84,0.02,0.12,-0.2,0.29,7684,2019-04-03 15:55:12:440
-2.71,2.61,11.73,-3.24,1.84,0.02,0.12,-0.2,0.29,7687,2019-04-03 15:55:12:443
-2.71,2.61,11.73,-3.24,1.84,0.02,0.12,-0.2,0.29,7692,2019-04-03 15:55:12:448
-2.71,2.61,11.73,-3.24,1.84,0.02,0.12,-0.2,0.29,7697,2019-04-03 15:55:12:453
2.98,3.04,10.97,2.48,2.02,-0.72,0.02,-0.09,0.28,7702,2019-04-03 15:55:12:458
2.98,3.04,10.97,2.48,2.02,-0.72,0.02,-0.09,0.28,7707,2019-04-03 15:55:12:463
2.98,3.04,10.97,2.48,2.02,-0.72,0.02,-0.09,0.28,7713,2019-04-03 15:55:12:469
2.98,3.04,10.97,2.48,2.02,-0.72,0.02,-0.09,0.28,7717,2019-04-03 15:55:12:473
-0.72,-0.04,8.64,-0.84,-1.01,-2.52,-0.17,0.18,0.28,7722,2019-04-03 15:55:12:478
-0.72,-0.04,8.64,-0.84,-1.01,-2.52,-0.17,0.18,0.28,7728,2019-04-03 15:55:12:484
-0.72,-0.04,8.64,-0.84,-1.01,-2.52,-0.17,0.18,0.28,7733,2019-04-03 15:55:12:489
-0.72,-0.04,8.64,-0.84,-1.01,-2.52,-0.17,0.18,0.28,7738,2019-04-03 15:55:12:494
0.23,-1.02,11.4,-0.14,-2.01,0.48,0.09,-0.04,0.19,7742,2019-04-03 15:55:12:498
0.23,-1.02,11.4,-0.14,-2.01,0.48,0.09,-0.04,0.19,7746,2019-04-03 15:55:12:502
0.23,-1.02,11.4,-0.14,-2.01,0.48,0.09,-0.04,0.19,7752,2019-04-03 15:55:12:508
0.23,-1.02,11.4,-0.14,-2.01,0.48,0.09,-0.04,0.19,7757,2019-04-03 15:55:12:513
-0.47,1.73,14.32,-0.64,0.78,3.27,0.09,0.13,0.21,7762,2019-04-03 15:55:12:518
-0.47,1.73,14.32,-0.64,0.78,3.27,0.09,0.13,0.21,7768,2019-04-03 15:55:12:524
-0.47,1.73,14.32,-0.64,0.78,3.27,0.09,0.13,0.21,7772,2019-04-03 15:55:12:528
-0.47,1.73,14.32,-0.64,0.78,3.27,0.09,0.13,0.21,7778,2019-04-03 15:55:12:534
-0.47,1.73,14.32,-0.64,0.78,3.27,0.09,0.13,0.21,7782,2019-04-03 15:55:12:538
-0.93,0.0,11.3,-0.87,-0.68,0.45,-0.1,0.09,0.15,7788,2019-04-03 15:55:12:544
-0.93,0.0,11.3,-0.87,-0.68,0.45,-0.1,0.09,0.15,7792,2019-04-03 15:55:12:548
-0.93,0.0,11.3,-0.87,-0.68,0.45,-0.1,0.09,0.15,7797,2019-04-03 15:55:12:553
-0.22,-2.07,7.04,-0.22,-3.01,-3.57,0.0,0.01,0.11,7802,2019-04-03 15:55:12:558
-0.22,-2.07,7.04,-0.22,-3.01,-3.57,0.0,0.01,0.11,7808,2019-04-03 15:55:12:564
-0.22,-2.07,7.04,-0.22,-3.01,-3.57,0.0,0.01,0.11,7812,2019-04-03 15:55:12:568
-0.22,-2.07,7.04,-0.22,-3.01,-0.62,0.06,0.05,0.07,7817,2019-04-03 15:55:12:573
1.23,-0.61,9.96,1.4,-1.27,-0.62,0.06,0.05,0.07,7825,2019-04-03 15:55:12:581
1.23,-0.61,9.96,1.4,-1.27,-0.62,0.06,0.05,0.07,7828,2019-04-03 15:55:12:584
