ACCELEROMETER X (m/s²),ACCELEROMETER Y (m/s²),ACCELEROMETER Z (m/s²),LINEAR ACCELERATION X (m/s²),LINEAR ACCELERATION Y (m/s²),LINEAR ACCELERATION Z (m/s²),GYROSCOPE X (rad/s),GYROSCOPE Y (rad/s),GYROSCOPE Z (rad/s),Time since start in ms ,YYYY-MO-DD HH-MI-SS_SSS
0.46,0.45,9.94,-0.05,0.06,0.0,0.0,0.0,0.0,6,2019-03-25 16:50:00:313
0.46,0.45,9.94,-0.05,0.06,0.0,0.0,0.0,0.0,11,2019-03-25 16:50:00:318
0.46,0.45,9.94,-0.05,0.06,0.0,0.0,0.0,0.0,15,2019-03-25 16:50:00:322
0.46,0.45,9.94,-0.05,0.06,0.0,0.0,0.0,0.0,21,2019-03-25 16:50:00:328
0.46,0.45,9.94,-0.05,0.06,0.0,0.0,0.0,0.0,26,2019-03-25 16:50:00:333
0.38,0.55,9.92,-0.04,0.1,-0.02,0.0,0.0,0.0,31,2019-03-25 16:50:00:338
0.38,0.55,9.92,-0.04,0.1,-0.02,0.0,0.0,0.0,36,2019-03-25 16:50:00:343
0.38,0.55,9.92,-0.04,0.1,-0.02,0.0,0.0,0.0,41,2019-03-25 16:50:00:348
0.38,0.55,9.92,-0.04,0.1,-0.02,0.0,0.0,0.0,46,2019-03-25 16:50:00:353
0.38,0.55,9.92,-0.04,0.1,-0.02,0.0,0.0,0.0,51,2019-03-25 16:50:00:358
0.38,0.55,9.92,-0.04,0.1,-0.02,0.0,0.0,0.0,57,2019-03-25 16:50:00:364
0.38,0.55,9.92,-0.04,0.1,-0.02,0.0,0.0,0.0,61,2019-03-25 16:50:00:368
0.44,0.57,9.9,0.02,0.1,-0.04,0.0,0.0,0.0,66,2019-03-25 16:50:00:373
0.44,0.57,9.9,0.02,0.1,-0.04,0.0,0.0,0.0,73,2019-03-25 16:50:00:380
0.44,0.57,9.9,0.02,0.1,-0.04,0.0,0.0,0.0,76,2019-03-25 16:50:00:383
0.41,0.55,9.95,0.0,0.07,0.01,0.0,0.0,0.0,82,2019-03-25 16:50:00:389
0.41,0.55,9.95,0.0,0.07,0.01,0.0,0.0,0.0,86,2019-03-25 16:50:00:393
0.41,0.55,9.95,0.0,0.07,0.01,0.0,0.0,0.0,91,2019-03-25 16:50:00:398
0.4,0.58,9.94,0.0,0.07,0.01,0.0,0.0,0.0,96,2019-03-25 16:50:00:403
0.4,0.58,9.94,-0.01,0.08,0.0,0.0,0.0,0.0,101,2019-03-25 16:50:00:408
0.4,0.58,9.94,-0.01,0.08,0.0,0.0,0.0,0.0,106,2019-03-25 16:50:00:413
0.4,0.58,9.94,-0.01,0.08,0.0,0.0,0.0,0.0,111,2019-03-25 16:50:00:418
0.4,0.58,9.94,-0.01,0.08,0.0,0.0,0.0,0.0,116,2019-03-25 16:50:00:423
0.4,0.58,9.94,-0.01,0.08,0.0,0.0,0.0,0.0,121,2019-03-25 16:50:00:428
0.4,0.58,9.94,-0.01,0.08,0.0,0.0,0.0,0.0,126,2019-03-25 16:50:00:433
0.35,0.59,9.91,-0.05,0.07,-0.02,0.0,0.0,0.0,132,2019-03-25 16:50:00:439
0.35,0.59,9.91,-0.05,0.07,-0.02,0.0,0.0,0.0,136,2019-03-25 16:50:00:443
0.35,0.59,9.91,-0.05,0.07,-0.02,0.0,0.0,0.0,141,2019-03-25 16:50:00:448
0.35,0.59,9.91,-0.05,0.07,-0.02,0.0,0.0,0.0,146,2019-03-25 16:50:00:453
0.35,0.59,9.91,-0.05,0.07,-0.02,0.0,0.0,0.0,151,2019-03-25 16:50:00:458
0.35,0.59,9.91,-0.05,0.07,-0.02,0.0,0.0,0.0,156,2019-03-25 16:50:00:463
0.52,0.46,9.92,0.09,-0.06,-0.01,0.0,0.0,0.0,161,2019-03-25 16:50:00:468
0.52,0.46,9.92,0.09,-0.06,-0.01,0.0,0.0,0.0,166,2019-03-25 16:50:00:473
0.52,0.46,9.92,0.09,-0.06,-0.01,0.0,0.0,0.0,171,2019-03-25 16:50:00:478
0.52,0.46,9.92,0.09,-0.06,-0.01,0.0,0.0,0.0,176,2019-03-25 16:50:00:483
0.46,0.38,9.94,0.03,-0.14,0.0,0.0,0.0,0.01,181,2019-03-25 16:50:00:488
0.46,0.38,9.94,0.03,-0.14,0.0,0.0,0.0,0.01,187,2019-03-25 16:50:00:494
0.46,0.38,9.94,0.03,-0.14,0.0,0.0,0.0,0.01,191,2019-03-25 16:50:00:498
0.46,0.38,9.94,0.03,-0.14,0.0,0.0,0.0,0.01,196,2019-03-25 16:50:00:503
0.49,0.34,9.92,0.06,-0.17,-0.01,0.0,0.0,0.01,201,2019-03-25 16:50:00:508
0.49,0.34,9.92,0.06,-0.17,-0.01,0.0,0.0,0.01,207,2019-03-25 16:50:00:514
0.49,0.34,9.92,0.06,-0.17,-0.01,0.0,0.0,0.01,212,2019-03-25 16:50:00:519
0.45,0.34,10.01,0.02,-0.14,0.06,0.0,0.0,0.01,216,2019-03-25 16:50:00:523
0.45,0.34,10.01,0.02,-0.14,0.06,0.0,0.0,0.01,221,2019-03-25 16:50:00:528
0.45,0.34,10.01,0.02,-0.14,0.06,0.0,0.0,0.01,226,2019-03-25 16:50:00:533
0.45,0.28,10.0,0.01,-0.19,0.06,0.0,0.0,0.01,231,2019-03-25 16:50:00:538
0.45,0.28,10.0,0.01,-0.19,0.06,0.0,0.0,0.01,236,2019-03-25 16:50:00:543
0.45,0.28,10.0,0.01,-0.19,0.06,0.0,0.0,0.01,241,2019-03-25 16:50:00:548
0.47,0.33,9.98,0.01,-0.19,0.06,0.0,0.0,0.01,246,2019-03-25 16:50:00:553
0.47,0.33,9.98,0.01,-0.19,0.06,0.0,0.0,0.01,251,2019-03-25 16:50:00:558
0.47,0.33,9.98,0.01,-0.19,0.06,0.0,0.0,0.01,255,2019-03-25 16:50:00:562
0.47,0.33,9.98,0.01,-0.19,0.06,0.0,0.0,0.01,262,2019-03-25 16:50:00:569
0.42,0.3,9.88,0.01,-0.11,0.03,0.0,0.0,0.01,266,2019-03-25 16:50:00:573
0.42,0.3,9.88,0.01,-0.11,0.03,0.0,0.0,0.01,271,2019-03-25 16:50:00:578
0.42,0.3,9.88,0.01,-0.11,0.03,0.0,0.0,0.01,276,2019-03-25 16:50:00:583
0.42,0.3,9.88,0.01,-0.11,0.03,0.0,0.0,0.01,281,2019-03-25 16:50:00:588
0.42,0.3,9.88,0.01,-0.11,0.03,0.0,0.0,0.01,286,2019-03-25 16:50:00:593
0.42,0.3,9.88,0.01,-0.11,0.03,0.0,0.0,0.01,291,2019-03-25 16:50:00:598
0.42,0.3,9.88,0.01,-0.11,0.03,0.0,0.0,0.01,296,2019-03-25 16:50:00:603
0.44,0.38,9.98,-0.01,-0.01,0.03,0.0,0.0,0.0,301,2019-03-25 16:50:00:608
0.44,0.38,9.98,-0.01,-0.01,0.03,0.0,0.0,0.0,306,2019-03-25 16:50:00:613
0.47,0.32,9.87,-0.01,-0.01,0.03,0.0,0.0,0.0,311,2019-03-25 16:50:00:618
0.47,0.32,9.87,-0.01,-0.01,0.03,0.0,0.0,0.0,315,2019-03-25 16:50:00:622
0.47,0.32,9.87,-0.01,-0.01,0.03,0.0,0.0,0.0,321,2019-03-25 16:50:00:628
0.47,0.32,9.87,-0.01,-0.01,0.03,0.0,0.0,0.0,327,2019-03-25 16:50:00:634
0.47,0.39,9.94,0.0,0.03,0.0,0.0,0.0,0.0,331,2019-03-25 16:50:00:638
0.47,0.39,9.94,0.0,0.03,0.0,0.0,0.0,0.0,336,2019-03-25 16:50:00:643
0.47,0.39,9.94,0.0,0.03,0.0,0.0,0.0,0.0,340,2019-03-25 16:50:00:647
0.47,0.39,9.94,0.0,0.03,0.0,0.0,0.0,0.0,346,2019-03-25 16:50:00:653
0.49,0.39,10.01,0.02,0.04,0.06,0.0,0.0,0.0,351,2019-03-25 16:50:00:658
0.49,0.39,10.01,0.02,0.04,0.06,0.0,0.0,0.0,356,2019-03-25 16:50:00:663
0.49,0.39,10.01,0.02,0.04,0.06,0.0,0.0,0.0,361,2019-03-25 16:50:00:668
0.49,0.39,10.01,0.02,0.04,0.06,0.0,0.0,0.0,366,2019-03-25 16:50:00:673
0.45,0.45,9.95,-0.01,0.1,0.0,0.0,0.0,0.0,372,2019-03-25 16:50:00:679
0.45,0.45,9.95,-0.01,0.1,0.0,0.0,0.0,0.0,376,2019-03-25 16:50:00:683
0.45,0.45,9.95,-0.01,0.1,0.0,0.0,0.0,0.0,381,2019-03-25 16:50:00:688
0.46,0.47,9.96,-0.01,0.1,0.0,0.0,0.0,0.0,386,2019-03-25 16:50:00:693
0.46,0.47,9.96,0.0,0.11,0.01,0.0,0.0,0.0,391,2019-03-25 16:50:00:698
0.46,0.47,9.96,0.0,0.11,0.01,0.0,0.0,0.0,395,2019-03-25 16:50:00:702
0.46,0.47,9.96,0.0,0.11,0.01,0.0,0.0,0.0,402,2019-03-25 16:50:00:709
0.46,0.47,9.96,0.0,0.11,0.01,0.0,0.0,0.0,405,2019-03-25 16:50:00:712
0.46,0.47,9.96,0.0,0.11,0.01,0.0,0.0,0.0,411,2019-03-25 16:50:00:718
0.48,0.5,9.97,0.01,0.12,0.02,0.0,0.0,0.0,416,2019-03-25 16:50:00:723
0.48,0.5,9.97,0.01,0.12,0.02,0.0,0.0,0.0,421,2019-03-25 16:50:00:728
0.48,0.5,9.97,0.01,0.12,0.02,0.0,0.0,0.0,426,2019-03-25 16:50:00:733
0.49,0.46,9.94,0.01,0.06,0.0,0.0,0.0,0.0,431,2019-03-25 16:50:00:738
0.49,0.46,9.94,0.01,0.06,0.0,0.0,0.0,0.0,436,2019-03-25 16:50:00:743
0.49,0.46,9.94,0.01,0.06,0.0,0.0,0.0,0.0,441,2019-03-25 16:50:00:748
0.49,0.46,9.94,0.01,0.06,0.0,0.0,0.0,0.0,446,2019-03-25 16:50:00:753
0.46,0.43,9.95,0.0,0.01,0.0,0.0,0.0,0.0,451,2019-03-25 16:50:00:758
0.46,0.43,9.95,0.0,0.01,0.0,0.0,0.0,0.0,456,2019-03-25 16:50:00:763
0.46,0.43,9.95,0.0,0.01,0.0,0.0,0.0,0.0,461,2019-03-25 16:50:00:768
0.46,0.43,9.95,0.0,0.01,0.0,0.0,0.0,0.0,466,2019-03-25 16:50:00:773
0.52,0.36,9.97,0.04,-0.05,0.02,0.0,0.0,0.0,471,2019-03-25 16:50:00:778
0.52,0.36,9.97,0.04,-0.05,0.02,0.0,0.0,0.0,476,2019-03-25 16:50:00:783
0.52,0.36,9.97,0.04,-0.05,0.02,0.0,0.0,0.0,481,2019-03-25 16:50:00:788
0.52,0.36,9.97,0.04,-0.05,0.02,0.0,0.0,0.0,486,2019-03-25 16:50:00:793
0.57,0.33,9.95,0.07,-0.08,0.0,0.0,0.0,0.0,491,2019-03-25 16:50:00:798
0.57,0.33,9.95,0.07,-0.08,0.0,0.0,0.0,0.0,496,2019-03-25 16:50:00:803
0.57,0.33,9.95,0.07,-0.08,0.0,0.0,0.0,0.0,501,2019-03-25 16:50:00:808
0.57,0.33,9.95,0.07,-0.08,0.0,0.0,0.0,0.0,507,2019-03-25 16:50:00:814
0.57,0.33,9.95,0.07,-0.08,0.0,0.0,0.0,0.0,512,2019-03-25 16:50:00:819
0.57,0.33,9.95,0.07,-0.08,0.0,0.0,0.0,0.0,516,2019-03-25 16:50:00:823
0.56,0.3,9.93,0.06,-0.11,-0.02,0.0,0.0,0.0,521,2019-03-25 16:50:00:828
0.56,0.3,9.93,0.06,-0.11,-0.02,0.0,0.0,0.0,526,2019-03-25 16:50:00:833
0.56,0.3,9.93,0.06,-0.11,-0.02,0.0,0.0,0.0,531,2019-03-25 16:50:00:838
0.56,0.3,9.93,0.06,-0.11,-0.02,0.0,0.0,0.0,536,2019-03-25 16:50:00:843
0.6,0.35,9.96,0.07,-0.05,0.01,0.0,0.0,0.0,541,2019-03-25 16:50:00:848
0.6,0.35,9.96,0.07,-0.05,0.01,0.0,0.0,0.0,546,2019-03-25 16:50:00:853
0.6,0.35,9.96,0.07,-0.05,0.01,0.0,0.0,0.0,551,2019-03-25 16:50:00:858
0.6,0.35,9.96,0.07,-0.05,0.01,0.0,0.0,0.0,556,2019-03-25 16:50:00:863
0.6,0.35,9.96,0.07,-0.05,0.01,0.0,0.0,0.0,561,2019-03-25 16:50:00:868
0.48,0.32,9.94,-0.04,-0.08,0.0,0.0,0.0,-0.01,566,2019-03-25 16:50:00:873
0.48,0.32,9.94,-0.04,-0.08,0.0,0.0,0.0,-0.01,571,2019-03-25 16:50:00:878
0.48,0.32,9.94,-0.04,-0.08,0.0,0.0,0.0,-0.01,576,2019-03-25 16:50:00:883
0.44,0.37,9.87,-0.07,-0.02,-0.06,0.0,0.0,-0.01,581,2019-03-25 16:50:00:888
0.44,0.37,9.87,-0.07,-0.02,-0.06,0.0,0.0,-0.01,588,2019-03-25 16:50:00:895
0.44,0.37,9.87,-0.07,-0.02,-0.06,0.0,0.0,-0.01,591,2019-03-25 16:50:00:898
0.52,0.4,9.94,-0.07,-0.02,-0.06,0.0,0.0,-0.01,596,2019-03-25 16:50:00:903
0.52,0.4,9.94,0.0,0.01,0.0,0.0,0.0,-0.02,601,2019-03-25 16:50:00:908
0.52,0.4,9.94,0.0,0.01,0.0,0.0,0.0,-0.02,606,2019-03-25 16:50:00:913
0.52,0.4,9.94,0.0,0.01,0.0,0.0,0.0,-0.02,611,2019-03-25 16:50:00:918
0.55,0.4,10.02,0.02,0.02,0.07,0.0,0.0,-0.02,616,2019-03-25 16:50:00:923
0.55,0.4,10.02,0.02,0.02,0.07,0.0,0.0,-0.02,621,2019-03-25 16:50:00:928
0.55,0.4,10.02,0.02,0.02,0.07,0.0,0.0,-0.02,625,2019-03-25 16:50:00:932
0.49,0.45,9.95,-0.03,0.08,0.01,0.0,0.0,-0.02,632,2019-03-25 16:50:00:939
0.49,0.45,9.95,-0.03,0.08,0.01,0.0,0.0,-0.02,636,2019-03-25 16:50:00:943
0.49,0.45,9.95,-0.03,0.08,0.01,0.0,0.0,-0.02,641,2019-03-25 16:50:00:948
0.49,0.45,9.95,-0.03,0.08,0.01,0.0,0.0,-0.02,646,2019-03-25 16:50:00:953
0.49,0.45,9.95,-0.03,0.08,0.01,0.0,0.0,-0.02,652,2019-03-25 16:50:00:959
0.49,0.45,9.95,-0.03,0.08,0.01,0.0,0.0,-0.02,657,2019-03-25 16:50:00:964
0.34,0.46,9.97,-0.17,0.08,0.03,0.0,0.01,-0.02,662,2019-03-25 16:50:00:969
0.34,0.46,9.97,-0.17,0.08,0.03,0.0,0.01,-0.02,666,2019-03-25 16:50:00:973
0.34,0.46,9.97,-0.17,0.08,0.03,0.0,0.01,-0.02,671,2019-03-25 16:50:00:978
0.34,0.46,9.97,-0.17,0.08,0.03,0.0,0.01,-0.02,676,2019-03-25 16:50:00:983
0.17,0.49,9.98,-0.32,0.1,0.03,0.0,0.0,-0.02,681,2019-03-25 16:50:00:988
0.17,0.49,9.98,-0.32,0.1,0.03,0.0,0.0,-0.02,686,2019-03-25 16:50:00:993
0.17,0.49,9.98,-0.32,0.1,0.03,0.0,0.0,-0.02,691,2019-03-25 16:50:00:998
0.17,0.49,9.98,-0.32,0.1,0.03,0.0,0.0,-0.02,696,2019-03-25 16:50:01:003
0.17,0.49,9.98,-0.32,0.1,0.03,0.0,0.0,-0.02,701,2019-03-25 16:50:01:008
0.17,0.49,9.98,-0.32,0.1,0.03,0.0,0.0,-0.02,706,2019-03-25 16:50:01:013
0.49,0.61,9.97,0.04,0.17,0.02,0.0,0.0,-0.02,711,2019-03-25 16:50:01:018
0.49,0.61,9.97,0.04,0.17,0.02,0.0,0.0,-0.02,715,2019-03-25 16:50:01:022
0.49,0.61,9.97,0.04,0.17,0.02,0.0,0.0,-0.02,722,2019-03-25 16:50:01:029
0.49,0.61,9.97,0.04,0.17,0.02,0.0,0.0,-0.02,726,2019-03-25 16:50:01:033
0.35,0.56,10.0,-0.07,0.1,0.04,0.0,0.0,-0.01,731,2019-03-25 16:50:01:038
0.35,0.56,10.0,-0.07,0.1,0.04,0.0,0.0,-0.01,736,2019-03-25 16:50:01:043
0.35,0.56,10.0,-0.07,0.1,0.04,0.0,0.0,-0.01,741,2019-03-25 16:50:01:048
0.35,0.56,10.0,-0.07,0.1,0.04,0.0,0.0,-0.01,746,2019-03-25 16:50:01:053
0.35,0.56,10.0,-0.07,0.1,0.04,0.0,0.0,-0.01,751,2019-03-25 16:50:01:058
0.35,0.56,10.0,-0.07,0.1,0.04,0.0,0.0,-0.01,756,2019-03-25 16:50:01:063
0.29,0.47,9.93,-0.11,0.0,-0.01,0.0,0.0,-0.01,762,2019-03-25 16:50:01:069
0.29,0.47,9.93,-0.11,0.0,-0.01,0.0,0.0,-0.01,766,2019-03-25 16:50:01:073
0.29,0.47,9.93,-0.11,0.0,-0.01,0.0,0.0,-0.01,771,2019-03-25 16:50:01:078
0.29,0.47,9.93,-0.11,0.0,-0.01,0.0,0.0,-0.01,776,2019-03-25 16:50:01:083
0.29,0.47,9.93,-0.11,0.0,-0.01,0.0,0.0,-0.01,781,2019-03-25 16:50:01:088
0.29,0.47,9.93,-0.11,0.0,-0.01,0.0,0.0,-0.01,786,2019-03-25 16:50:01:093
0.23,0.48,9.9,-0.11,-0.01,-0.06,0.0,0.0,0.0,792,2019-03-25 16:50:01:099
0.23,0.48,9.9,-0.11,-0.01,-0.06,0.0,0.0,0.0,796,2019-03-25 16:50:01:103
0.23,0.48,9.9,-0.11,-0.01,-0.06,0.0,0.0,0.0,800,2019-03-25 16:50:01:107
0.23,0.48,9.9,-0.11,-0.01,-0.06,0.0,0.0,0.0,806,2019-03-25 16:50:01:113
0.23,0.48,9.9,-0.11,-0.01,-0.06,0.0,0.0,0.0,811,2019-03-25 16:50:01:118
0.48,0.64,9.87,0.14,0.12,-0.07,0.0,0.0,0.0,816,2019-03-25 16:50:01:123
0.48,0.64,9.87,0.14,0.12,-0.07,0.0,0.0,0.0,821,2019-03-25 16:50:01:128
0.48,0.64,9.87,0.14,0.12,-0.07,0.0,0.0,0.0,826,2019-03-25 16:50:01:133
0.53,0.63,9.94,0.19,0.09,0.0,0.0,0.0,0.0,832,2019-03-25 16:50:01:139
0.53,0.63,9.94,0.19,0.09,0.0,0.0,0.0,0.0,836,2019-03-25 16:50:01:143
0.53,0.63,9.94,0.19,0.09,0.0,0.0,0.0,0.0,841,2019-03-25 16:50:01:148
0.53,0.63,9.94,0.19,0.09,0.0,0.0,0.0,0.0,846,2019-03-25 16:50:01:153
0.54,0.51,10.0,0.18,-0.03,0.04,0.0,0.0,0.0,851,2019-03-25 16:50:01:158
0.54,0.51,10.0,0.18,-0.03,0.04,0.0,0.0,0.0,856,2019-03-25 16:50:01:163
0.54,0.51,10.0,0.18,-0.03,0.04,0.0,0.0,0.0,861,2019-03-25 16:50:01:168
0.54,0.51,10.0,0.18,-0.03,0.04,0.0,0.0,0.0,866,2019-03-25 16:50:01:173
0.54,0.51,10.0,0.18,-0.03,0.04,0.0,0.0,0.0,871,2019-03-25 16:50:01:178
0.54,0.51,10.0,0.18,-0.03,0.04,0.0,0.0,0.0,876,2019-03-25 16:50:01:183
0.33,0.41,9.99,-0.03,-0.12,0.04,0.0,0.0,0.0,881,2019-03-25 16:50:01:188
0.33,0.41,9.99,-0.03,-0.12,0.04,0.0,0.0,0.0,886,2019-03-25 16:50:01:193
0.33,0.41,9.99,-0.03,-0.12,0.04,0.0,0.0,0.0,891,2019-03-25 16:50:01:198
0.33,0.41,9.99,0.13,-0.24,0.01,0.0,0.0,0.0,896,2019-03-25 16:50:01:203
0.33,0.41,9.99,0.13,-0.24,0.01,0.0,0.0,0.0,901,2019-03-25 16:50:01:208
0.33,0.41,9.99,0.13,-0.24,0.01,0.0,0.0,0.0,906,2019-03-25 16:50:01:213
0.33,0.41,9.99,0.13,-0.24,0.01,0.0,0.0,0.0,910,2019-03-25 16:50:01:217
0.33,0.41,9.99,0.13,-0.24,0.01,0.0,0.0,0.0,916,2019-03-25 16:50:01:223
0.51,0.15,10.0,0.12,-0.32,0.05,0.0,0.0,0.0,920,2019-03-25 16:50:01:227
0.51,0.15,10.0,0.12,-0.32,0.05,0.0,0.0,-0.01,926,2019-03-25 16:50:01:233
0.38,0.01,9.9,0.0,-0.38,-0.04,0.0,0.0,-0.01,931,2019-03-25 16:50:01:238
0.38,0.01,9.9,0.0,-0.38,-0.04,0.0,0.0,-0.01,937,2019-03-25 16:50:01:244
0.38,0.01,9.9,0.0,-0.38,-0.04,0.0,0.0,-0.01,940,2019-03-25 16:50:01:247
0.38,0.01,9.9,0.0,-0.38,-0.04,0.0,0.0,-0.01,946,2019-03-25 16:50:01:253
0.41,0.0,9.95,0.0,-0.38,0.01,0.0,0.0,-0.01,951,2019-03-25 16:50:01:258
0.41,0.0,9.95,0.0,-0.38,0.01,0.0,0.0,-0.01,956,2019-03-25 16:50:01:263
0.41,0.0,9.95,0.0,-0.38,0.01,0.0,0.0,-0.01,961,2019-03-25 16:50:01:268
0.41,0.0,9.95,0.0,-0.38,0.01,0.0,0.0,-0.01,966,2019-03-25 16:50:01:273
0.41,0.0,9.95,0.0,-0.38,0.01,0.0,0.0,-0.01,971,2019-03-25 16:50:01:278
0.41,0.0,9.95,0.0,-0.38,0.01,0.0,0.0,-0.01,976,2019-03-25 16:50:01:283
0.51,0.02,10.02,0.06,-0.28,0.07,0.0,0.0,-0.02,981,2019-03-25 16:50:01:288
0.51,0.02,10.02,0.06,-0.28,0.07,0.0,0.0,-0.02,987,2019-03-25 16:50:01:294
0.51,0.02,10.02,0.06,-0.28,0.07,0.0,0.0,-0.02,991,2019-03-25 16:50:01:298
0.51,0.02,10.02,0.06,-0.28,0.07,0.0,0.0,-0.02,996,2019-03-25 16:50:01:303
0.6,0.04,9.98,0.12,-0.22,0.01,0.0,0.0,-0.02,1001,2019-03-25 16:50:01:308
0.6,0.04,9.98,0.12,-0.22,0.01,0.0,0.0,-0.02,1007,2019-03-25 16:50:01:314
0.6,0.04,9.98,0.12,-0.22,0.01,0.0,0.0,-0.02,1011,2019-03-25 16:50:01:318
0.5,0.11,10.0,0.03,-0.09,0.03,0.0,0.0,-0.02,1016,2019-03-25 16:50:01:323
0.5,0.11,10.0,0.03,-0.09,0.03,0.0,0.0,-0.02,1021,2019-03-25 16:50:01:328
0.5,0.11,10.0,0.03,-0.09,0.03,0.0,0.0,-0.02,1026,2019-03-25 16:50:01:333
0.33,0.2,9.97,-0.13,0.03,0.0,0.0,0.0,-0.02,1032,2019-03-25 16:50:01:339
0.33,0.2,9.97,-0.13,0.03,0.0,0.0,0.0,-0.02,1036,2019-03-25 16:50:01:343
0.33,0.2,9.97,-0.13,0.03,0.0,0.0,0.0,-0.02,1041,2019-03-25 16:50:01:348
0.33,0.2,9.97,-0.13,0.03,0.0,0.0,0.0,-0.02,1046,2019-03-25 16:50:01:353
0.34,0.35,10.01,-0.11,0.2,0.04,0.0,0.0,-0.01,1052,2019-03-25 16:50:01:359
0.34,0.35,10.01,-0.11,0.2,0.04,0.0,0.0,-0.01,1055,2019-03-25 16:50:01:362
0.34,0.35,10.01,-0.11,0.2,0.04,0.0,0.0,-0.01,1061,2019-03-25 16:50:01:368
0.34,0.35,10.01,-0.11,0.2,0.04,0.0,0.0,-0.01,1066,2019-03-25 16:50:01:373
0.27,0.35,9.96,-0.16,0.2,0.0,0.0,0.0,0.0,1072,2019-03-25 16:50:01:379
0.27,0.35,9.96,-0.16,0.2,0.0,0.0,0.0,0.0,1075,2019-03-25 16:50:01:382
0.27,0.35,9.96,-0.16,0.2,0.0,0.0,0.0,0.0,1081,2019-03-25 16:50:01:388
0.27,0.35,9.96,-0.16,0.2,0.0,0.0,0.0,0.0,1086,2019-03-25 16:50:01:393
0.33,0.38,9.92,-0.09,0.22,-0.05,0.0,0.0,0.0,1091,2019-03-25 16:50:01:398
0.33,0.38,9.92,-0.09,0.22,-0.05,0.0,0.0,0.0,1096,2019-03-25 16:50:01:403
0.33,0.38,9.92,-0.09,0.22,-0.05,0.0,0.0,0.0,1101,2019-03-25 16:50:01:408
0.33,0.38,9.92,-0.09,0.22,-0.05,0.0,0.0,0.0,1106,2019-03-25 16:50:01:413
0.38,0.52,9.98,-0.09,0.22,-0.05,0.0,0.0,0.02,1111,2019-03-25 16:50:01:418
0.38,0.52,9.98,-0.02,0.32,0.01,0.0,0.0,0.02,1116,2019-03-25 16:50:01:423
0.38,0.52,9.98,-0.02,0.32,0.01,0.0,0.0,0.02,1121,2019-03-25 16:50:01:428
0.38,0.52,9.98,-0.02,0.32,0.01,0.0,0.0,0.02,1126,2019-03-25 16:50:01:433
0.38,0.64,9.94,-0.02,0.38,-0.03,0.0,0.0,0.02,1131,2019-03-25 16:50:01:438
0.38,0.64,9.94,-0.02,0.38,-0.03,0.0,0.0,0.02,1136,2019-03-25 16:50:01:443
0.38,0.64,9.94,-0.02,0.38,-0.03,0.0,0.0,0.02,1141,2019-03-25 16:50:01:448
0.27,0.55,9.97,-0.02,0.38,-0.03,0.0,0.0,0.02,1146,2019-03-25 16:50:01:453
0.27,0.55,9.97,-0.12,0.23,0.0,0.0,0.0,0.02,1151,2019-03-25 16:50:01:458
0.27,0.55,9.97,-0.12,0.23,0.0,0.0,0.0,0.02,1156,2019-03-25 16:50:01:463
0.27,0.55,9.97,-0.12,0.23,0.0,0.0,0.0,0.02,1161,2019-03-25 16:50:01:468
0.27,0.55,9.97,-0.12,0.23,0.0,0.0,0.0,0.02,1166,2019-03-25 16:50:01:473
0.27,0.55,9.97,-0.12,0.23,0.0,0.0,0.0,0.02,1171,2019-03-25 16:50:01:478
0.27,0.55,9.97,-0.12,0.23,0.0,0.0,0.0,0.02,1176,2019-03-25 16:50:01:483
0.27,0.55,9.97,-0.12,0.23,0.0,0.0,0.0,0.02,1181,2019-03-25 16:50:01:488
0.29,0.48,9.87,-0.1,0.12,-0.09,0.0,0.0,0.02,1186,2019-03-25 16:50:01:493
0.29,0.48,9.87,-0.1,0.12,-0.09,0.0,0.0,0.02,1191,2019-03-25 16:50:01:498
0.29,0.48,9.87,-0.1,0.12,-0.09,0.0,0.0,0.02,1196,2019-03-25 16:50:01:503
0.25,0.53,9.88,-0.11,0.13,-0.07,0.0,0.0,0.01,1201,2019-03-25 16:50:01:508
0.25,0.53,9.88,-0.11,0.13,-0.07,0.0,0.0,0.01,1206,2019-03-25 16:50:01:513
0.25,0.53,9.88,-0.11,0.13,-0.07,0.0,0.0,0.01,1211,2019-03-25 16:50:01:518
0.45,0.54,9.95,0.09,0.1,0.01,0.0,0.0,0.01,1216,2019-03-25 16:50:01:523
0.45,0.54,9.95,0.09,0.1,0.01,0.0,0.0,0.01,1221,2019-03-25 16:50:01:528
0.45,0.54,9.95,0.09,0.1,0.01,0.0,0.0,0.01,1226,2019-03-25 16:50:01:533
0.39,0.49,10.0,0.03,0.01,0.05,0.0,0.0,0.01,1231,2019-03-25 16:50:01:538
0.39,0.49,10.0,0.03,0.01,0.05,0.0,0.0,0.01,1236,2019-03-25 16:50:01:543
0.39,0.49,10.0,0.03,0.01,0.05,0.0,0.0,0.01,1241,2019-03-25 16:50:01:548
0.39,0.49,10.0,0.03,0.01,0.05,0.0,0.0,0.01,1246,2019-03-25 16:50:01:553
0.38,0.53,9.92,0.01,0.03,-0.01,0.0,0.0,0.0,1251,2019-03-25 16:50:01:558
0.38,0.53,9.92,0.01,0.03,-0.01,0.0,0.0,0.0,1255,2019-03-25 16:50:01:562
0.38,0.53,9.92,0.01,0.03,-0.01,0.0,0.0,0.0,1261,2019-03-25 16:50:01:568
0.38,0.53,9.92,0.01,0.03,-0.01,0.0,0.0,0.0,1266,2019-03-25 16:50:01:573
0.21,0.57,9.96,-0.14,0.05,0.01,0.0,0.0,0.0,1271,2019-03-25 16:50:01:578
0.21,0.57,9.96,-0.14,0.05,0.01,0.0,0.0,0.0,1276,2019-03-25 16:50:01:583
0.21,0.57,9.96,-0.14,0.05,0.01,0.0,0.0,0.0,1281,2019-03-25 16:50:01:588
0.21,0.57,9.96,-0.14,0.05,0.01,0.0,0.0,0.0,1286,2019-03-25 16:50:01:593
0.1,0.54,10.06,-0.23,0.0,0.11,0.0,0.0,0.0,1291,2019-03-25 16:50:01:598
0.1,0.54,10.06,-0.23,0.0,0.11,0.0,0.0,0.0,1296,2019-03-25 16:50:01:603
0.1,0.54,10.06,-0.23,0.0,0.11,0.0,0.0,0.0,1301,2019-03-25 16:50:01:608
0.1,0.54,10.06,-0.23,0.0,0.11,0.0,0.0,0.0,1306,2019-03-25 16:50:01:613
0.1,0.54,10.06,-0.23,0.0,0.11,0.0,0.0,0.0,1311,2019-03-25 16:50:01:618
0.19,0.37,9.9,-0.12,-0.14,-0.03,0.0,-0.01,0.01,1316,2019-03-25 16:50:01:623
0.19,0.37,9.9,-0.12,-0.14,-0.03,0.0,-0.01,0.01,1321,2019-03-25 16:50:01:628
0.19,0.37,9.9,-0.12,-0.14,-0.03,0.0,-0.01,0.01,1326,2019-03-25 16:50:01:633
0.38,0.26,9.88,0.06,-0.22,-0.06,0.0,0.0,0.03,1332,2019-03-25 16:50:01:639
0.38,0.26,9.88,0.06,-0.22,-0.06,0.0,0.0,0.03,1336,2019-03-25 16:50:01:643
0.38,0.26,9.88,0.06,-0.22,-0.06,0.0,0.0,0.03,1342,2019-03-25 16:50:01:649
0.38,0.26,9.88,0.06,-0.22,-0.06,0.0,0.0,0.03,1346,2019-03-25 16:50:01:653
0.38,0.26,9.88,0.06,-0.22,-0.06,0.0,0.0,0.03,1351,2019-03-25 16:50:01:658
0.38,0.26,9.88,0.06,-0.22,-0.06,0.0,0.0,0.03,1357,2019-03-25 16:50:01:664
0.65,0.35,9.96,0.31,-0.11,0.0,0.0,0.0,0.04,1361,2019-03-25 16:50:01:668
0.65,0.35,9.96,0.31,-0.11,0.0,0.0,0.0,0.04,1366,2019-03-25 16:50:01:673
0.65,0.35,9.96,0.31,-0.11,0.0,0.0,0.0,0.04,1371,2019-03-25 16:50:01:678
0.65,0.35,9.96,0.31,-0.11,0.0,0.0,0.0,0.04,1377,2019-03-25 16:50:01:684
0.74,0.6,9.92,0.37,0.13,-0.02,0.0,-0.01,0.04,1381,2019-03-25 16:50:01:688
0.74,0.6,9.92,0.37,0.13,-0.02,0.0,-0.01,0.04,1386,2019-03-25 16:50:01:693
0.74,0.6,9.92,0.37,0.13,-0.02,0.0,-0.01,0.04,1392,2019-03-25 16:50:01:699
0.74,0.6,9.92,0.37,0.13,-0.02,0.0,-0.01,0.04,1396,2019-03-25 16:50:01:703
0.74,0.6,9.92,0.37,0.13,-0.02,0.0,-0.01,0.04,1401,2019-03-25 16:50:01:708
0.74,0.6,9.92,0.37,0.13,-0.02,0.0,-0.01,0.04,1407,2019-03-25 16:50:01:714
0.74,0.6,9.92,0.37,0.13,-0.02,0.0,-0.01,0.04,1411,2019-03-25 16:50:01:718
0.74,0.6,9.92,0.37,0.13,-0.02,0.0,-0.01,0.04,1416,2019-03-25 16:50:01:723
0.94,1.2,9.82,0.47,0.61,-0.13,0.0,0.0,0.0,1421,2019-03-25 16:50:01:728
0.94,1.2,9.82,0.47,0.61,-0.13,0.0,0.0,0.0,1426,2019-03-25 16:50:01:733
0.88,1.12,9.85,0.35,0.3,-0.04,0.0,0.0,-0.04,1431,2019-03-25 16:50:01:738
0.88,1.12,9.85,0.35,0.3,-0.04,0.0,0.0,-0.04,1436,2019-03-25 16:50:01:743
0.88,1.12,9.85,0.35,0.3,-0.04,0.0,0.0,-0.04,1441,2019-03-25 16:50:01:748
0.88,1.12,9.85,0.35,0.3,-0.04,0.0,0.0,-0.04,1446,2019-03-25 16:50:01:753
0.88,1.12,9.85,0.35,0.3,-0.04,0.0,0.0,-0.04,1451,2019-03-25 16:50:01:758
0.88,1.12,9.85,0.35,0.3,-0.04,0.0,0.0,-0.04,1456,2019-03-25 16:50:01:763
0.88,1.12,9.85,0.35,0.3,-0.04,0.0,0.0,-0.04,1461,2019-03-25 16:50:01:768
0.74,0.79,9.86,0.17,0.09,-0.06,-0.01,0.0,-0.07,1466,2019-03-25 16:50:01:773
0.74,0.79,9.86,0.17,0.09,-0.06,-0.01,0.0,-0.07,1472,2019-03-25 16:50:01:779
0.74,0.79,9.86,0.17,0.09,-0.06,-0.01,0.0,-0.07,1475,2019-03-25 16:50:01:782
0.74,0.79,9.86,0.17,0.09,-0.06,-0.01,0.0,-0.07,1481,2019-03-25 16:50:01:788
0.74,0.21,9.92,0.17,0.09,-0.06,-0.01,0.0,-0.07,1486,2019-03-25 16:50:01:793
0.32,0.21,9.92,-0.3,-0.44,0.01,-0.01,0.0,-0.1,1491,2019-03-25 16:50:01:798
0.32,0.21,9.92,-0.3,-0.44,0.01,-0.01,0.0,-0.1,1496,2019-03-25 16:50:01:803
0.32,0.21,9.92,-0.3,-0.44,0.01,-0.01,0.0,-0.1,1501,2019-03-25 16:50:01:808
0.32,0.21,9.92,-0.3,-0.44,0.01,-0.01,0.0,-0.1,1506,2019-03-25 16:50:01:813
0.32,0.21,9.92,-0.3,-0.44,0.01,-0.01,0.0,-0.1,1512,2019-03-25 16:50:01:819
0.01,0.06,10.03,-0.6,-0.56,0.11,-0.01,0.0,-0.09,1516,2019-03-25 16:50:01:823
0.01,0.06,10.03,-0.6,-0.56,0.11,-0.01,0.0,-0.09,1521,2019-03-25 16:50:01:828
0.01,0.06,10.03,-0.6,-0.56,0.11,-0.01,0.0,-0.09,1527,2019-03-25 16:50:01:834
-0.06,0.04,10.04,-0.63,-0.54,0.12,-0.01,0.0,-0.07,1531,2019-03-25 16:50:01:838
-0.06,0.04,10.04,-0.63,-0.54,0.12,-0.01,0.0,-0.07,1535,2019-03-25 16:50:01:842
-0.06,0.04,10.04,-0.63,-0.54,0.12,-0.01,0.0,-0.07,1541,2019-03-25 16:50:01:848
-0.06,0.04,10.04,-0.63,-0.54,0.12,-0.01,0.0,-0.07,1546,2019-03-25 16:50:01:853
-0.06,0.04,10.04,-0.63,-0.54,0.12,-0.01,0.0,-0.07,1551,2019-03-25 16:50:01:858
-0.06,0.04,10.04,-0.63,-0.54,0.12,-0.01,0.0,-0.07,1557,2019-03-25 16:50:01:864
0.06,0.24,10.03,-0.45,-0.33,0.1,-0.01,0.0,-0.03,1562,2019-03-25 16:50:01:869
0.06,0.24,10.03,-0.45,-0.33,0.1,-0.01,0.0,-0.03,1566,2019-03-25 16:50:01:873
0.06,0.24,10.03,-0.45,-0.33,0.1,-0.01,0.0,-0.03,1573,2019-03-25 16:50:01:880
0.06,0.24,10.03,-0.45,-0.33,0.1,-0.01,0.0,-0.03,1576,2019-03-25 16:50:01:883
0.06,0.24,10.03,-0.45,-0.33,0.1,-0.01,0.0,-0.03,1580,2019-03-25 16:50:01:887
0.06,0.24,10.03,-0.45,-0.33,0.1,-0.01,0.0,-0.03,1585,2019-03-25 16:50:01:892
0.23,0.5,9.98,-0.15,-0.01,0.04,0.0,0.0,0.02,1591,2019-03-25 16:50:01:898
0.23,0.5,9.98,-0.15,-0.01,0.04,0.0,0.0,0.02,1596,2019-03-25 16:50:01:903
0.23,0.5,9.98,-0.15,-0.01,0.04,0.0,0.0,0.02,1601,2019-03-25 16:50:01:908
0.23,0.5,9.98,-0.15,-0.01,0.04,0.0,0.0,0.02,1606,2019-03-25 16:50:01:913
0.23,0.5,9.98,-0.15,-0.01,0.04,0.0,0.0,0.02,1611,2019-03-25 16:50:01:918
0.42,0.63,9.94,0.08,0.18,-0.01,0.0,0.0,0.03,1616,2019-03-25 16:50:01:923
0.42,0.63,9.94,0.08,0.18,-0.01,0.0,0.0,0.03,1621,2019-03-25 16:50:01:928
0.42,0.63,9.94,0.08,0.18,-0.01,0.0,0.0,0.03,1625,2019-03-25 16:50:01:932
0.6,0.71,9.88,0.29,0.3,-0.07,0.0,0.0,0.03,1631,2019-03-25 16:50:01:938
0.6,0.71,9.88,0.29,0.3,-0.07,0.0,0.0,0.03,1639,2019-03-25 16:50:01:946
0.6,0.71,9.88,0.29,0.3,-0.07,0.0,0.0,0.03,1641,2019-03-25 16:50:01:948
0.6,0.71,9.88,0.29,0.3,-0.07,0.0,0.0,0.03,1647,2019-03-25 16:50:01:954
0.6,0.71,9.88,0.29,0.3,-0.07,0.0,0.0,0.03,1651,2019-03-25 16:50:01:958
0.6,0.71,9.88,0.29,0.3,-0.07,0.0,0.0,0.03,1657,2019-03-25 16:50:01:964
0.6,0.71,9.88,0.29,0.3,-0.07,0.0,0.0,0.03,1661,2019-03-25 16:50:01:968
0.64,0.71,9.96,0.36,0.31,0.0,0.0,0.0,0.01,1666,2019-03-25 16:50:01:973
0.64,0.71,9.96,0.36,0.31,0.0,0.0,0.0,0.01,1671,2019-03-25 16:50:01:978
0.64,0.71,9.96,0.36,0.31,0.0,0.0,0.0,0.01,1677,2019-03-25 16:50:01:984
0.64,0.71,9.96,0.36,0.31,0.0,0.0,0.0,0.01,1681,2019-03-25 16:50:01:988
0.52,0.68,9.9,0.24,0.27,-0.06,0.0,0.0,0.0,1686,2019-03-25 16:50:01:993
0.52,0.68,9.9,0.24,0.27,-0.06,0.0,0.0,0.0,1692,2019-03-25 16:50:01:999
0.52,0.68,9.9,0.24,0.27,-0.06,0.0,0.0,0.0,1697,2019-03-25 16:50:02:004
0.43,0.61,9.93,0.14,0.16,-0.04,0.0,0.0,-0.01,1705,2019-03-25 16:50:02:012
0.43,0.61,9.93,0.14,0.16,-0.04,0.0,0.0,-0.01,1705,2019-03-25 16:50:02:012
0.43,0.61,9.93,0.14,0.16,-0.04,0.0,0.0,-0.01,1711,2019-03-25 16:50:02:018
0.43,0.61,9.93,0.14,0.16,-0.04,0.0,0.0,-0.01,1716,2019-03-25 16:50:02:023
0.43,0.61,9.93,0.14,0.16,-0.04,0.0,0.0,-0.01,1721,2019-03-25 16:50:02:028
0.43,0.61,9.93,0.14,0.16,-0.04,0.0,0.0,-0.01,1726,2019-03-25 16:50:02:033
0.43,0.61,9.93,0.14,0.16,-0.04,0.0,0.0,-0.01,1731,2019-03-25 16:50:02:038
0.43,0.61,9.93,0.14,0.16,-0.04,0.0,0.0,-0.01,1738,2019-03-25 16:50:02:045
0.43,0.61,9.93,0.14,0.16,-0.04,0.0,0.0,-0.01,1741,2019-03-25 16:50:02:048
0.18,0.52,9.94,-0.16,-0.01,-0.01,0.0,0.0,0.0,1747,2019-03-25 16:50:02:054
0.18,0.52,9.94,-0.16,-0.01,-0.01,0.0,0.0,0.0,1751,2019-03-25 16:50:02:058
0.18,0.52,9.94,-0.16,-0.01,-0.01,0.0,0.0,0.0,1756,2019-03-25 16:50:02:063
0.24,0.52,9.94,-0.12,-0.04,0.0,0.0,0.0,0.0,1761,2019-03-25 16:50:02:068
0.24,0.52,9.94,-0.12,-0.04,0.0,0.0,0.0,0.0,1766,2019-03-25 16:50:02:073
0.24,0.52,9.94,-0.12,-0.04,0.0,0.0,0.0,0.02,1771,2019-03-25 16:50:02:078
0.24,0.52,9.94,-0.12,-0.04,0.0,0.0,0.0,0.02,1776,2019-03-25 16:50:02:083
0.24,0.52,9.94,-0.12,-0.04,0.0,0.0,0.0,0.02,1781,2019-03-25 16:50:02:088
0.24,0.52,9.94,-0.12,-0.04,0.0,0.0,0.0,0.02,1786,2019-03-25 16:50:02:093
0.46,0.63,9.95,0.04,0.02,0.0,0.0,0.0,0.02,1791,2019-03-25 16:50:02:098
0.46,0.63,9.95,0.04,0.02,0.0,0.0,0.0,0.02,1796,2019-03-25 16:50:02:103
0.46,0.63,9.95,0.04,0.02,0.0,0.0,0.0,0.02,1801,2019-03-25 16:50:02:108
0.46,0.63,9.95,0.04,0.02,0.0,0.0,0.0,0.02,1806,2019-03-25 16:50:02:113
0.47,0.57,9.93,0.04,-0.02,0.0,0.0,0.0,0.02,1811,2019-03-25 16:50:02:118
0.47,0.57,9.93,0.04,-0.02,0.0,0.0,0.0,0.02,1816,2019-03-25 16:50:02:123
0.47,0.57,9.93,0.04,-0.02,0.0,0.0,0.0,0.02,1821,2019-03-25 16:50:02:128
0.47,0.57,9.93,0.04,-0.02,0.0,0.0,0.0,0.02,1826,2019-03-25 16:50:02:133
0.51,0.57,9.92,0.09,-0.01,-0.02,0.0,0.0,0.03,1831,2019-03-25 16:50:02:138
0.51,0.57,9.92,0.09,-0.01,-0.02,0.0,0.0,0.03,1835,2019-03-25 16:50:02:142
0.51,0.57,9.92,0.09,-0.01,-0.02,0.0,0.0,0.03,1841,2019-03-25 16:50:02:148
0.51,0.57,9.92,0.09,-0.01,-0.02,0.0,0.0,0.03,1845,2019-03-25 16:50:02:152
0.51,0.57,9.92,0.09,-0.01,-0.02,0.0,0.0,0.03,1851,2019-03-25 16:50:02:158
0.51,0.57,9.92,0.09,-0.01,-0.02,0.0,0.0,0.03,1856,2019-03-25 16:50:02:163
0.6,0.51,9.89,0.18,-0.05,-0.05,0.0,0.0,0.02,1861,2019-03-25 16:50:02:168
0.6,0.51,9.89,0.18,-0.05,-0.05,0.0,0.0,0.02,1867,2019-03-25 16:50:02:174
0.6,0.51,9.89,0.18,-0.05,-0.05,0.0,0.0,0.0,1871,2019-03-25 16:50:02:178
0.6,0.51,9.89,0.18,-0.05,-0.05,0.0,0.0,0.0,1876,2019-03-25 16:50:02:183
0.6,0.51,9.89,0.18,-0.05,-0.05,0.0,0.0,0.0,1881,2019-03-25 16:50:02:188
0.6,0.51,9.89,0.18,-0.05,-0.05,0.0,0.0,0.0,1886,2019-03-25 16:50:02:193
0.52,0.27,9.93,0.1,-0.24,-0.01,0.0,0.0,0.0,1891,2019-03-25 16:50:02:198
0.52,0.27,9.93,0.1,-0.24,-0.01,0.0,0.0,0.0,1896,2019-03-25 16:50:02:203
0.52,0.27,9.93,0.1,-0.24,-0.01,0.0,0.0,0.0,1901,2019-03-25 16:50:02:208
0.52,0.27,9.93,0.1,-0.24,-0.01,0.0,0.0,0.0,1906,2019-03-25 16:50:02:213
0.5,0.19,9.97,0.06,-0.28,0.02,0.0,0.0,-0.01,1911,2019-03-25 16:50:02:218
0.5,0.19,9.97,0.06,-0.28,0.02,0.0,0.0,-0.01,1916,2019-03-25 16:50:02:223
0.44,0.14,9.95,-0.01,-0.29,0.0,0.0,0.0,-0.01,1928,2019-03-25 16:50:02:235
0.44,0.14,9.95,-0.01,-0.29,0.0,0.0,0.0,-0.01,1930,2019-03-25 16:50:02:237
0.44,0.14,9.95,-0.01,-0.29,0.0,0.0,0.0,-0.01,1931,2019-03-25 16:50:02:238
0.44,0.14,9.95,-0.01,-0.29,0.0,0.0,0.0,-0.01,1936,2019-03-25 16:50:02:243
0.44,0.14,9.95,-0.01,-0.29,0.0,0.0,0.0,-0.01,1941,2019-03-25 16:50:02:248
0.44,0.14,9.95,-0.01,-0.29,0.0,0.0,0.0,-0.01,1947,2019-03-25 16:50:02:254
0.44,0.14,9.95,-0.01,-0.29,0.0,0.0,0.0,-0.01,1951,2019-03-25 16:50:02:258
0.44,0.14,9.95,-0.01,-0.29,0.0,0.0,0.0,-0.01,1956,2019-03-25 16:50:02:263
0.38,0.06,9.93,-0.08,-0.32,-0.01,-0.01,0.0,-0.01,1962,2019-03-25 16:50:02:269
0.38,0.06,9.93,-0.08,-0.32,-0.01,-0.01,0.0,-0.01,1966,2019-03-25 16:50:02:273
0.38,0.06,9.93,-0.08,-0.32,-0.01,-0.01,0.0,-0.01,1970,2019-03-25 16:50:02:277
0.36,0.13,10.0,-0.11,-0.21,0.04,0.0,0.0,-0.01,1978,2019-03-25 16:50:02:285
0.36,0.13,10.0,-0.11,-0.21,0.04,0.0,0.0,-0.01,1982,2019-03-25 16:50:02:289
0.36,0.13,10.0,-0.11,-0.21,0.04,0.0,0.0,-0.01,1987,2019-03-25 16:50:02:294
0.36,0.13,10.0,-0.11,-0.21,0.04,0.0,0.0,-0.01,1992,2019-03-25 16:50:02:299
0.36,0.13,10.0,-0.11,-0.21,0.04,0.0,0.0,-0.01,1996,2019-03-25 16:50:02:303
0.36,0.13,10.0,-0.11,-0.21,0.04,0.0,0.0,-0.01,2002,2019-03-25 16:50:02:309
0.36,0.13,10.0,-0.11,-0.21,0.04,0.0,0.0,-0.01,2005,2019-03-25 16:50:02:312
0.33,0.31,9.98,-0.12,0.02,0.03,0.0,0.0,-0.01,2011,2019-03-25 16:50:02:318
0.33,0.31,9.98,-0.12,0.02,0.03,0.0,0.0,-0.01,2016,2019-03-25 16:50:02:323
0.33,0.31,9.98,-0.12,0.02,0.03,0.0,0.0,-0.01,2023,2019-03-25 16:50:02:330
0.33,0.31,9.98,-0.12,0.02,0.03,0.0,0.0,-0.01,2026,2019-03-25 16:50:02:333
0.33,0.31,9.98,-0.12,0.02,0.03,0.0,0.0,-0.01,2031,2019-03-25 16:50:02:338
0.41,0.32,9.99,-0.12,0.02,0.03,0.0,0.0,0.0,2036,2019-03-25 16:50:02:343
0.41,0.32,9.99,-0.04,0.06,0.03,0.0,0.0,0.0,2041,2019-03-25 16:50:02:348
0.41,0.32,9.99,-0.04,0.06,0.03,0.0,0.0,0.0,2046,2019-03-25 16:50:02:353
0.41,0.32,9.99,-0.04,0.06,0.03,0.0,0.0,0.0,2050,2019-03-25 16:50:02:357
0.38,0.26,9.92,-0.04,0.02,-0.03,0.0,0.0,0.0,2057,2019-03-25 16:50:02:364
0.38,0.26,9.92,-0.04,0.02,-0.03,0.0,0.0,0.0,2062,2019-03-25 16:50:02:369
0.38,0.26,9.92,-0.04,0.02,-0.03,0.0,0.0,0.0,2066,2019-03-25 16:50:02:373
0.35,0.22,10.0,-0.06,0.0,0.04,0.0,0.0,0.0,2072,2019-03-25 16:50:02:379
0.35,0.22,10.0,-0.06,0.0,0.04,0.0,0.0,0.0,2076,2019-03-25 16:50:02:383
0.35,0.22,10.0,-0.06,0.0,0.04,0.0,0.0,0.0,2081,2019-03-25 16:50:02:388
0.35,0.22,10.0,-0.06,0.0,0.04,0.0,0.0,0.0,2087,2019-03-25 16:50:02:394
0.45,0.21,9.96,0.04,0.0,0.0,0.0,0.0,0.0,2092,2019-03-25 16:50:02:399
0.45,0.21,9.96,0.04,0.0,0.0,0.0,0.0,0.0,2096,2019-03-25 16:50:02:403
0.45,0.21,9.96,0.04,0.0,0.0,0.0,0.0,0.0,2101,2019-03-25 16:50:02:408
0.45,0.21,9.96,0.04,0.0,0.0,0.0,0.0,0.0,2107,2019-03-25 16:50:02:414
0.45,0.29,9.95,0.04,0.07,-0.01,0.0,0.0,0.0,2111,2019-03-25 16:50:02:418
0.45,0.29,9.95,0.04,0.07,-0.01,0.0,0.0,0.0,2116,2019-03-25 16:50:02:423
0.45,0.29,9.95,0.04,0.07,-0.01,0.0,0.0,0.0,2121,2019-03-25 16:50:02:428
0.45,0.29,9.95,0.04,0.07,-0.01,0.0,0.0,0.0,2125,2019-03-25 16:50:02:432
0.47,0.37,9.95,0.06,0.13,0.0,0.0,0.0,0.0,2132,2019-03-25 16:50:02:439
0.47,0.37,9.95,0.06,0.13,0.0,0.0,0.0,0.0,2137,2019-03-25 16:50:02:444
0.47,0.37,9.95,0.06,0.13,0.0,0.0,0.0,0.0,2141,2019-03-25 16:50:02:448
0.47,0.37,9.95,0.06,0.13,0.0,0.0,0.0,0.0,2146,2019-03-25 16:50:02:453
0.38,0.43,9.91,-0.03,0.16,-0.04,0.0,0.0,0.0,2151,2019-03-25 16:50:02:458
0.38,0.43,9.91,-0.03,0.16,-0.04,0.0,0.0,0.0,2156,2019-03-25 16:50:02:463
0.38,0.43,9.91,-0.03,0.16,-0.04,0.0,0.0,0.0,2163,2019-03-25 16:50:02:470
0.38,0.43,9.91,-0.03,0.16,-0.04,0.0,0.0,0.0,2166,2019-03-25 16:50:02:473
0.43,0.4,9.93,0.01,0.1,-0.01,0.0,0.0,0.0,2171,2019-03-25 16:50:02:478
0.43,0.4,9.93,0.01,0.1,-0.01,0.0,0.0,0.0,2178,2019-03-25 16:50:02:485
0.43,0.4,9.93,0.01,0.1,-0.01,0.0,0.0,0.0,2181,2019-03-25 16:50:02:488
0.43,0.4,9.93,0.01,0.1,-0.01,0.0,0.0,0.0,2186,2019-03-25 16:50:02:493
0.42,0.34,10.02,0.0,0.02,0.06,0.0,0.0,-0.01,2192,2019-03-25 16:50:02:499
0.42,0.34,10.02,0.0,0.02,0.06,0.0,0.0,-0.01,2196,2019-03-25 16:50:02:503
0.42,0.34,10.02,0.0,0.02,0.06,0.0,0.0,-0.01,2204,2019-03-25 16:50:02:511
0.42,0.34,10.02,0.0,0.02,0.06,0.0,0.0,-0.01,2210,2019-03-25 16:50:02:517
0.42,0.34,10.02,0.0,0.02,0.06,0.0,0.0,-0.01,2211,2019-03-25 16:50:02:518
0.43,0.29,9.93,0.0,-0.03,-0.02,0.0,0.0,-0.01,2216,2019-03-25 16:50:02:523
0.43,0.29,9.93,0.0,-0.03,-0.02,0.0,0.0,-0.01,2222,2019-03-25 16:50:02:529
0.43,0.29,9.93,0.0,-0.03,-0.02,0.0,0.0,-0.01,2226,2019-03-25 16:50:02:533
0.43,0.29,9.93,0.0,-0.03,-0.02,0.0,0.0,-0.01,2231,2019-03-25 16:50:02:538
0.46,0.2,9.97,0.03,-0.1,0.01,0.0,0.0,-0.01,2236,2019-03-25 16:50:02:543
0.46,0.2,9.97,0.03,-0.1,0.01,0.0,0.0,-0.01,2242,2019-03-25 16:50:02:549
0.46,0.2,9.97,0.03,-0.1,0.01,0.0,0.0,-0.01,2246,2019-03-25 16:50:02:553
0.45,0.25,9.97,0.01,-0.05,0.01,0.0,0.0,0.0,2252,2019-03-25 16:50:02:559
0.45,0.25,9.97,0.01,-0.05,0.01,0.0,0.0,0.0,2256,2019-03-25 16:50:02:563
0.45,0.25,9.97,0.01,-0.05,0.01,0.0,0.0,0.0,2261,2019-03-25 16:50:02:568
0.45,0.25,9.97,0.01,-0.05,0.01,0.0,0.0,0.0,2266,2019-03-25 16:50:02:573
0.41,0.32,9.94,-0.02,0.0,-0.01,0.0,0.0,0.0,2271,2019-03-25 16:50:02:578
0.41,0.32,9.94,-0.02,0.0,-0.01,0.0,0.0,0.0,2278,2019-03-25 16:50:02:585
0.41,0.32,9.94,-0.02,0.0,-0.01,0.0,0.0,0.0,2282,2019-03-25 16:50:02:589
0.41,0.32,9.94,-0.02,0.0,-0.01,0.0,0.0,0.0,2285,2019-03-25 16:50:02:592
0.46,0.4,9.95,0.01,0.07,0.0,0.0,0.0,0.0,2291,2019-03-25 16:50:02:598
0.46,0.4,9.95,0.01,0.07,0.0,0.0,0.0,0.0,2296,2019-03-25 16:50:02:603
0.46,0.4,9.95,0.01,0.07,0.0,0.0,0.0,0.0,2301,2019-03-25 16:50:02:608
0.46,0.4,9.95,0.01,0.07,0.0,0.0,0.0,0.0,2307,2019-03-25 16:50:02:614
0.49,0.45,9.95,0.04,0.1,0.0,0.0,0.0,0.0,2311,2019-03-25 16:50:02:618
0.49,0.45,9.95,0.04,0.1,0.0,0.0,0.0,0.0,2316,2019-03-25 16:50:02:623
0.49,0.45,9.95,0.04,0.1,0.0,0.0,0.0,0.0,2321,2019-03-25 16:50:02:628
0.49,0.45,9.95,0.04,0.1,0.0,0.0,0.0,0.0,2329,2019-03-25 16:50:02:636
0.49,0.45,9.95,0.04,0.1,0.0,0.0,0.0,0.0,2331,2019-03-25 16:50:02:638
0.55,0.41,9.9,0.09,0.05,-0.05,0.0,0.0,0.0,2336,2019-03-25 16:50:02:643
0.55,0.41,9.9,0.09,0.05,-0.05,0.0,0.0,0.0,2341,2019-03-25 16:50:02:648
0.55,0.41,9.9,0.09,0.05,-0.05,0.0,0.0,0.0,2346,2019-03-25 16:50:02:653
0.55,0.41,9.9,0.09,0.05,-0.05,0.0,0.0,0.0,2351,2019-03-25 16:50:02:658
0.45,0.49,9.94,0.0,0.13,-0.02,0.0,0.0,-0.01,2356,2019-03-25 16:50:02:663
0.45,0.49,9.94,0.0,0.13,-0.02,0.0,0.0,-0.01,2361,2019-03-25 16:50:02:668
0.43,0.48,9.89,-0.02,0.11,-0.06,0.0,0.0,-0.01,2366,2019-03-25 16:50:02:673
0.43,0.48,9.89,-0.02,0.11,-0.06,0.0,0.0,-0.01,2371,2019-03-25 16:50:02:678
0.43,0.48,9.89,-0.02,0.11,-0.06,0.0,0.0,-0.01,2376,2019-03-25 16:50:02:683
0.43,0.48,9.89,-0.02,0.11,-0.06,0.0,0.0,-0.01,2383,2019-03-25 16:50:02:690
0.43,0.48,9.89,-0.02,0.11,-0.06,0.0,0.0,-0.01,2386,2019-03-25 16:50:02:693
0.43,0.48,9.89,-0.02,0.11,-0.06,0.0,0.0,-0.01,2391,2019-03-25 16:50:02:698
0.35,0.49,9.93,-0.1,0.11,-0.02,0.0,0.0,-0.01,2396,2019-03-25 16:50:02:703
0.35,0.49,9.93,-0.1,0.11,-0.02,0.0,0.0,-0.01,2404,2019-03-25 16:50:02:711
0.35,0.49,9.93,-0.1,0.11,-0.02,0.0,0.0,-0.01,2406,2019-03-25 16:50:02:713
0.36,0.44,9.99,-0.08,0.04,0.03,0.0,0.0,-0.02,2410,2019-03-25 16:50:02:717
0.36,0.44,9.99,-0.08,0.04,0.03,0.0,0.0,-0.02,2416,2019-03-25 16:50:02:723
0.36,0.44,9.99,-0.08,0.04,0.03,0.0,0.0,-0.02,2421,2019-03-25 16:50:02:728
0.24,0.33,9.94,-0.18,-0.07,-0.01,0.0,0.0,-0.01,2427,2019-03-25 16:50:02:734
0.24,0.33,9.94,-0.18,-0.07,-0.01,0.0,0.0,-0.01,2431,2019-03-25 16:50:02:738
0.24,0.33,9.94,-0.18,-0.07,-0.01,0.0,0.0,-0.01,2436,2019-03-25 16:50:02:743
0.24,0.33,9.94,-0.18,-0.07,-0.01,0.0,0.0,-0.01,2443,2019-03-25 16:50:02:750
0.24,0.33,9.94,-0.18,-0.07,-0.01,0.0,0.0,-0.01,2446,2019-03-25 16:50:02:753
0.24,0.33,9.94,-0.18,-0.07,-0.01,0.0,0.0,-0.01,2453,2019-03-25 16:50:02:760
0.24,0.33,9.94,-0.18,-0.07,-0.01,0.0,0.0,-0.01,2456,2019-03-25 16:50:02:763
0.35,0.41,10.0,-0.06,-0.01,0.04,0.0,0.0,0.0,2461,2019-03-25 16:50:02:768
0.35,0.41,10.0,-0.06,-0.01,0.04,0.0,0.0,0.0,2466,2019-03-25 16:50:02:773
0.35,0.41,10.0,-0.06,-0.01,0.04,0.0,0.0,0.0,2471,2019-03-25 16:50:02:778
0.35,0.41,10.0,0.0,0.01,-0.09,0.0,0.0,0.0,2476,2019-03-25 16:50:02:783
0.35,0.41,10.0,0.0,0.01,-0.09,0.0,0.0,0.0,2481,2019-03-25 16:50:02:788
0.35,0.41,10.0,0.0,0.01,-0.09,0.0,0.0,0.0,2486,2019-03-25 16:50:02:793
0.35,0.41,10.0,0.0,0.01,-0.09,0.0,0.0,0.0,2493,2019-03-25 16:50:02:800
0.35,0.41,10.0,0.0,0.01,-0.09,0.0,0.0,0.0,2496,2019-03-25 16:50:02:803
0.37,0.46,9.98,-0.03,0.01,0.02,0.0,0.0,0.0,2502,2019-03-25 16:50:02:809
0.37,0.46,9.98,-0.03,0.01,0.02,0.0,0.0,0.0,2506,2019-03-25 16:50:02:813
0.37,0.46,9.98,-0.03,0.01,0.02,0.0,0.0,0.0,2511,2019-03-25 16:50:02:818
0.37,0.46,9.98,-0.03,0.06,0.0,0.0,0.0,0.0,2517,2019-03-25 16:50:02:824
0.37,0.46,9.98,-0.03,0.06,0.0,0.0,0.0,0.0,2521,2019-03-25 16:50:02:828
0.37,0.46,9.98,-0.03,0.06,0.0,0.0,0.0,0.0,2527,2019-03-25 16:50:02:834
0.34,0.43,9.93,-0.03,0.06,0.0,0.0,0.0,0.0,2531,2019-03-25 16:50:02:838
0.34,0.43,9.93,-0.03,-0.02,-0.01,0.0,0.0,0.0,2536,2019-03-25 16:50:02:843
0.34,0.43,9.93,-0.03,-0.02,-0.01,0.0,0.0,0.0,2541,2019-03-25 16:50:02:848
0.39,0.37,9.92,-0.03,-0.02,-0.01,0.0,0.0,0.0,2546,2019-03-25 16:50:02:853
0.39,0.37,9.92,0.02,-0.07,-0.02,0.0,0.0,0.0,2553,2019-03-25 16:50:02:860
0.39,0.37,9.92,0.02,-0.07,-0.02,0.0,0.0,0.0,2556,2019-03-25 16:50:02:863
0.39,0.37,9.92,0.02,-0.07,-0.02,0.0,0.0,0.0,2561,2019-03-25 16:50:02:868
0.47,0.39,9.93,0.1,-0.04,-0.01,0.0,0.0,0.0,2566,2019-03-25 16:50:02:873
0.47,0.39,9.93,0.1,-0.04,-0.01,0.0,0.0,0.0,2571,2019-03-25 16:50:02:878
0.47,0.39,9.93,0.1,-0.04,-0.01,0.0,0.0,0.0,2576,2019-03-25 16:50:02:883
0.47,0.39,9.93,0.1,-0.04,-0.01,0.0,0.0,0.0,2581,2019-03-25 16:50:02:888
0.47,0.39,9.93,0.1,-0.04,-0.01,0.0,0.0,0.0,2586,2019-03-25 16:50:02:893
0.47,0.39,9.93,0.1,-0.04,-0.01,0.0,0.0,0.0,2591,2019-03-25 16:50:02:898
0.47,0.39,9.93,0.1,-0.04,-0.01,0.0,0.0,0.0,2596,2019-03-25 16:50:02:903
0.43,0.44,9.96,0.06,0.0,0.0,0.0,0.0,0.0,2601,2019-03-25 16:50:02:908
0.43,0.44,9.96,0.06,0.0,0.0,0.0,0.0,0.0,2606,2019-03-25 16:50:02:913
0.43,0.44,9.96,0.06,0.0,0.0,0.0,0.0,0.0,2613,2019-03-25 16:50:02:920
0.43,0.44,9.96,0.06,0.0,0.0,0.0,0.0,0.0,2617,2019-03-25 16:50:02:924
0.43,0.44,9.96,0.06,0.0,0.0,0.0,0.0,0.0,2622,2019-03-25 16:50:02:929
0.43,0.44,9.96,0.06,0.0,0.0,0.0,0.0,0.0,2626,2019-03-25 16:50:02:933
0.45,0.47,9.96,0.05,0.02,0.0,0.0,0.0,0.0,2632,2019-03-25 16:50:02:939
0.45,0.47,9.96,0.05,0.02,0.0,0.0,0.0,0.0,2637,2019-03-25 16:50:02:944
0.45,0.47,9.96,0.05,0.02,0.0,0.0,0.0,0.0,2641,2019-03-25 16:50:02:948
0.44,0.45,9.98,0.05,0.02,0.0,0.0,0.0,0.0,2647,2019-03-25 16:50:02:954
0.44,0.45,9.98,0.03,0.0,0.03,0.0,0.0,0.0,2652,2019-03-25 16:50:02:959
0.44,0.45,9.98,0.03,0.0,0.03,0.0,0.0,0.0,2656,2019-03-25 16:50:02:963
0.44,0.45,9.98,0.03,0.0,0.03,0.0,0.0,0.0,2662,2019-03-25 16:50:02:969
0.44,0.45,9.98,0.03,0.0,0.03,0.0,0.0,0.0,2666,2019-03-25 16:50:02:973
0.44,0.45,9.98,0.03,0.0,0.03,0.0,0.0,0.0,2671,2019-03-25 16:50:02:978
0.44,0.45,9.98,0.03,0.0,0.03,0.0,0.0,0.0,2676,2019-03-25 16:50:02:983
0.44,0.33,9.94,0.02,-0.11,0.0,0.0,0.0,0.0,2681,2019-03-25 16:50:02:988
0.44,0.33,9.94,0.02,-0.11,0.0,0.0,0.0,0.0,2686,2019-03-25 16:50:02:993
0.48,0.36,9.95,0.02,-0.11,0.0,0.0,0.0,0.0,2694,2019-03-25 16:50:03:001
0.48,0.36,9.95,0.02,-0.11,0.0,0.0,0.0,0.0,2696,2019-03-25 16:50:03:003
0.48,0.36,9.95,0.02,-0.11,0.0,0.0,0.0,0.0,2701,2019-03-25 16:50:03:008
0.48,0.36,9.95,0.02,-0.11,0.0,0.0,0.0,0.0,2706,2019-03-25 16:50:03:013
0.48,0.36,9.95,0.02,-0.11,0.0,0.0,0.0,0.0,2711,2019-03-25 16:50:03:018
0.48,0.36,9.95,0.02,-0.11,0.0,0.0,0.0,0.0,2716,2019-03-25 16:50:03:023
0.45,0.39,9.94,0.01,-0.02,0.0,0.0,0.0,0.0,2725,2019-03-25 16:50:03:032
0.45,0.39,9.94,0.01,-0.02,0.0,0.0,0.0,0.0,2726,2019-03-25 16:50:03:033
0.45,0.39,9.94,0.01,-0.02,0.0,0.0,0.0,0.0,2731,2019-03-25 16:50:03:038
0.45,0.39,9.94,0.01,-0.02,0.0,0.0,0.0,0.0,2737,2019-03-25 16:50:03:044
0.45,0.39,9.94,0.01,-0.02,0.0,0.0,0.0,0.0,2741,2019-03-25 16:50:03:048
0.39,0.4,9.97,-0.04,-0.01,0.01,0.0,0.0,0.0,2747,2019-03-25 16:50:03:054
0.39,0.4,9.97,-0.04,-0.01,0.01,0.0,0.0,0.0,2752,2019-03-25 16:50:03:059
0.39,0.4,9.97,-0.04,-0.01,0.01,0.0,0.0,0.0,2758,2019-03-25 16:50:03:065
0.39,0.4,9.97,-0.04,-0.01,0.01,0.0,0.0,0.0,2761,2019-03-25 16:50:03:068
0.39,0.4,9.97,-0.04,-0.01,0.01,0.0,0.0,0.0,2766,2019-03-25 16:50:03:073
0.41,0.34,9.95,-0.02,-0.06,0.0,0.0,0.0,0.0,2772,2019-03-25 16:50:03:079
0.41,0.34,9.95,-0.02,-0.06,0.0,0.0,0.0,0.0,2778,2019-03-25 16:50:03:085
0.41,0.34,9.95,-0.02,-0.06,0.0,0.0,0.0,0.0,2781,2019-03-25 16:50:03:088
0.41,0.34,9.95,-0.02,-0.06,0.0,0.0,0.0,0.0,2786,2019-03-25 16:50:03:093
0.44,0.32,9.98,0.0,-0.07,0.01,0.0,0.0,0.0,2790,2019-03-25 16:50:03:097
0.44,0.32,9.98,0.0,-0.07,0.01,0.0,0.0,0.0,2797,2019-03-25 16:50:03:104
0.44,0.32,9.98,0.0,-0.07,0.01,0.0,0.0,0.0,2802,2019-03-25 16:50:03:109
0.44,0.32,9.98,0.0,-0.07,0.01,0.0,0.0,0.0,2806,2019-03-25 16:50:03:113
0.44,0.32,9.98,0.0,-0.07,0.01,0.0,0.0,0.0,2812,2019-03-25 16:50:03:119
0.44,0.32,9.98,0.0,-0.07,0.01,0.0,0.0,0.0,2817,2019-03-25 16:50:03:124
0.45,0.3,9.93,0.01,-0.07,-0.01,0.0,0.0,0.0,2821,2019-03-25 16:50:03:128
0.45,0.3,9.93,0.01,-0.07,-0.01,0.0,0.0,0.0,2827,2019-03-25 16:50:03:134
0.45,0.3,9.93,0.01,-0.07,-0.01,0.0,0.0,0.0,2831,2019-03-25 16:50:03:138
0.45,0.3,9.93,0.01,-0.07,-0.01,0.0,0.0,0.0,2836,2019-03-25 16:50:03:143
0.36,0.29,9.97,-0.06,-0.06,0.01,0.0,0.0,0.0,2845,2019-03-25 16:50:03:152
0.36,0.29,9.97,-0.06,-0.06,0.01,0.0,0.0,0.0,2848,2019-03-25 16:50:03:155
0.36,0.29,9.97,-0.06,-0.06,0.01,0.0,0.0,0.0,2852,2019-03-25 16:50:03:159
0.36,0.29,9.97,-0.06,-0.06,0.01,0.0,0.0,0.0,2859,2019-03-25 16:50:03:166
0.36,0.29,9.97,-0.06,-0.06,0.01,0.0,0.0,0.0,2861,2019-03-25 16:50:03:168
0.39,0.29,9.97,-0.02,-0.04,0.01,0.0,0.0,0.0,2866,2019-03-25 16:50:03:173
0.39,0.29,9.97,-0.02,-0.04,0.01,0.0,0.0,0.0,2871,2019-03-25 16:50:03:178
0.39,0.29,9.97,-0.02,-0.04,0.01,0.0,0.0,0.0,2876,2019-03-25 16:50:03:183
0.39,0.29,9.97,-0.02,-0.04,0.01,0.0,0.0,0.0,2881,2019-03-25 16:50:03:188
0.39,0.29,9.97,-0.02,-0.04,0.01,0.0,0.0,0.0,2886,2019-03-25 16:50:03:193
0.39,0.29,9.97,-0.02,-0.04,0.01,0.0,0.0,0.0,2892,2019-03-25 16:50:03:199
0.39,0.29,9.97,-0.02,-0.04,0.01,0.0,0.0,0.0,2900,2019-03-25 16:50:03:207
0.39,0.29,9.97,-0.02,-0.04,0.01,0.0,0.0,0.0,2901,2019-03-25 16:50:03:208
0.45,0.29,9.99,0.03,-0.04,0.03,0.0,0.0,0.0,2906,2019-03-25 16:50:03:213
0.45,0.29,9.99,0.03,-0.04,0.03,0.0,0.0,0.0,2911,2019-03-25 16:50:03:218
0.45,0.29,9.99,0.03,-0.04,0.03,0.0,0.0,0.0,2916,2019-03-25 16:50:03:223
0.45,0.29,9.99,0.03,-0.04,0.03,0.0,0.0,0.0,2922,2019-03-25 16:50:03:229
0.45,0.29,9.99,0.03,-0.04,0.03,0.0,0.0,0.0,2929,2019-03-25 16:50:03:236
0.44,0.6,10.0,0.02,0.25,0.04,0.0,0.0,0.0,2932,2019-03-25 16:50:03:239
0.44,0.6,10.0,0.02,0.25,0.04,0.0,0.0,0.0,2937,2019-03-25 16:50:03:244
0.44,0.6,10.0,0.02,0.25,0.04,0.0,0.0,0.0,2940,2019-03-25 16:50:03:247
0.44,0.6,10.0,0.02,0.25,0.04,0.0,0.0,0.0,2947,2019-03-25 16:50:03:254
0.41,0.7,9.94,-0.01,0.32,-0.02,0.0,0.0,0.0,2951,2019-03-25 16:50:03:258
0.41,0.7,9.94,-0.01,0.32,-0.02,0.0,0.0,0.0,2956,2019-03-25 16:50:03:263
0.41,0.7,9.94,-0.01,0.32,-0.02,0.0,0.0,0.0,2963,2019-03-25 16:50:03:270
0.41,0.7,9.94,-0.01,0.32,-0.02,0.0,0.0,0.0,2966,2019-03-25 16:50:03:273
0.41,0.7,9.94,-0.01,0.32,-0.02,0.0,0.0,0.0,2971,2019-03-25 16:50:03:278
0.41,0.7,9.94,-0.01,0.32,-0.02,0.0,0.0,0.0,2976,2019-03-25 16:50:03:283
0.41,0.7,9.94,-0.01,0.32,-0.02,0.0,0.0,0.0,2982,2019-03-25 16:50:03:289
0.43,0.61,9.94,0.0,0.2,-0.01,0.0,0.0,0.0,2986,2019-03-25 16:50:03:293
0.43,0.61,9.94,0.0,0.2,-0.01,0.0,0.0,0.0,2993,2019-03-25 16:50:03:300
0.43,0.53,9.91,0.0,0.09,-0.03,0.0,0.0,0.0,3000,2019-03-25 16:50:03:307
0.43,0.53,9.91,0.0,0.09,-0.03,0.0,0.0,0.0,3000,2019-03-25 16:50:03:307
0.43,0.53,9.91,0.0,0.09,-0.03,0.0,0.0,0.0,3006,2019-03-25 16:50:03:313
0.43,0.53,9.91,-0.08,-0.02,0.01,0.0,0.0,0.0,3011,2019-03-25 16:50:03:318
0.43,0.53,9.91,-0.08,-0.02,0.01,0.0,0.0,0.0,3016,2019-03-25 16:50:03:323
0.43,0.53,9.91,-0.08,-0.02,0.01,0.0,0.0,0.0,3022,2019-03-25 16:50:03:329
0.43,0.53,9.91,-0.08,-0.02,0.01,0.0,0.0,0.0,3026,2019-03-25 16:50:03:333
0.43,0.53,9.91,-0.08,-0.02,0.01,0.0,0.0,0.0,3031,2019-03-25 16:50:03:338
0.43,0.53,9.91,-0.08,-0.02,0.01,0.0,0.0,0.0,3036,2019-03-25 16:50:03:343
0.38,0.37,9.93,-0.04,-0.09,-0.01,0.0,0.0,0.0,3041,2019-03-25 16:50:03:348
0.38,0.37,9.93,-0.04,-0.09,-0.01,0.0,0.0,0.0,3045,2019-03-25 16:50:03:352
0.38,0.37,9.93,-0.04,-0.09,-0.01,0.0,0.0,0.0,3055,2019-03-25 16:50:03:362
0.38,0.37,9.93,-0.04,-0.09,-0.01,0.0,0.0,0.0,3056,2019-03-25 16:50:03:363
0.38,0.37,9.93,-0.04,-0.09,-0.01,0.0,0.0,0.0,3061,2019-03-25 16:50:03:368
0.38,0.37,9.93,-0.04,-0.09,-0.01,0.0,0.0,0.0,3066,2019-03-25 16:50:03:373
0.48,0.47,9.94,0.05,0.0,0.0,0.0,0.0,0.0,3071,2019-03-25 16:50:03:378
0.48,0.47,9.94,0.05,0.0,0.0,0.0,0.0,0.0,3077,2019-03-25 16:50:03:384
0.48,0.47,9.94,0.05,0.0,0.0,0.0,0.0,0.0,3081,2019-03-25 16:50:03:388
0.48,0.47,9.94,0.05,0.0,0.0,0.0,0.0,0.0,3086,2019-03-25 16:50:03:393
0.5,0.51,9.94,0.06,0.0,0.0,0.0,0.0,0.0,3093,2019-03-25 16:50:03:400
0.5,0.51,9.94,0.06,0.0,0.0,0.0,0.0,0.0,3097,2019-03-25 16:50:03:404
0.5,0.51,9.94,0.06,0.0,0.0,0.0,0.0,0.0,3100,2019-03-25 16:50:03:407
0.5,0.51,9.94,0.06,0.0,0.0,0.0,0.0,0.0,3106,2019-03-25 16:50:03:413
0.54,0.47,9.96,0.1,-0.03,0.01,0.0,0.0,-0.01,3111,2019-03-25 16:50:03:418
0.54,0.47,9.96,0.1,-0.03,0.01,0.0,0.0,-0.01,3116,2019-03-25 16:50:03:423
0.54,0.47,9.96,0.1,-0.03,0.01,0.0,0.0,-0.01,3122,2019-03-25 16:50:03:429
0.54,0.47,9.96,0.1,-0.03,0.01,0.0,0.0,-0.01,3125,2019-03-25 16:50:03:432
0.56,0.33,9.92,0.12,-0.16,-0.02,0.0,0.0,-0.02,3135,2019-03-25 16:50:03:442
0.56,0.33,9.92,0.12,-0.16,-0.02,0.0,0.0,-0.02,3136,2019-03-25 16:50:03:443
0.56,0.33,9.92,0.12,-0.16,-0.02,0.0,0.0,-0.02,3141,2019-03-25 16:50:03:448
0.56,0.33,9.92,0.12,-0.16,-0.02,0.0,0.0,-0.02,3146,2019-03-25 16:50:03:453
0.47,0.27,10.0,0.02,-0.17,0.05,0.0,0.0,-0.02,3151,2019-03-25 16:50:03:458
0.47,0.27,10.0,0.02,-0.17,0.05,0.0,0.0,-0.02,3156,2019-03-25 16:50:03:463
0.47,0.27,10.0,0.02,-0.17,0.05,0.0,0.0,-0.02,3161,2019-03-25 16:50:03:468
0.47,0.27,10.0,0.02,-0.17,0.05,0.0,0.0,-0.02,3168,2019-03-25 16:50:03:475
0.47,0.27,10.0,0.02,-0.17,0.05,0.0,0.0,-0.02,3173,2019-03-25 16:50:03:480
0.47,0.27,10.0,0.02,-0.17,0.05,0.0,0.0,-0.02,3176,2019-03-25 16:50:03:483
0.52,0.22,9.99,0.07,-0.18,0.03,0.0,0.0,-0.02,3183,2019-03-25 16:50:03:490
0.52,0.22,9.99,0.07,-0.18,0.03,0.0,0.0,-0.02,3186,2019-03-25 16:50:03:493
0.5,0.2,9.94,0.04,-0.16,-0.01,0.0,0.0,-0.01,3191,2019-03-25 16:50:03:498
0.5,0.2,9.94,0.04,-0.16,-0.01,0.0,0.0,-0.01,3196,2019-03-25 16:50:03:503
0.5,0.2,9.94,0.04,-0.16,-0.01,0.0,0.0,-0.01,3201,2019-03-25 16:50:03:508
0.5,0.2,9.94,0.04,-0.16,-0.01,0.0,0.0,-0.01,3206,2019-03-25 16:50:03:513
0.5,0.2,9.94,0.04,-0.16,-0.01,0.0,0.0,-0.01,3210,2019-03-25 16:50:03:517
0.41,0.19,9.92,0.04,-0.16,-0.01,0.0,0.0,-0.01,3216,2019-03-25 16:50:03:523
0.41,0.19,9.92,-0.04,-0.15,-0.03,0.0,0.0,-0.01,3220,2019-03-25 16:50:03:527
0.41,0.19,9.92,-0.04,-0.15,-0.03,0.0,0.0,-0.01,3226,2019-03-25 16:50:03:533
0.41,0.19,9.92,-0.04,-0.15,-0.03,0.0,0.0,-0.01,3230,2019-03-25 16:50:03:537
0.41,0.19,9.92,-0.04,-0.15,-0.03,0.0,0.0,-0.01,3236,2019-03-25 16:50:03:543
0.36,0.23,9.93,-0.09,-0.09,-0.02,0.0,0.0,-0.01,3241,2019-03-25 16:50:03:548
0.36,0.23,9.93,-0.09,-0.09,-0.02,0.0,0.0,-0.01,3247,2019-03-25 16:50:03:554
0.33,0.3,10.0,-0.11,0.03,0.0,0.0,0.0,-0.01,3251,2019-03-25 16:50:03:558
0.33,0.3,10.0,-0.11,0.03,0.0,0.0,0.0,-0.01,3256,2019-03-25 16:50:03:563
0.33,0.3,10.0,-0.11,0.03,0.0,0.0,0.0,-0.01,3261,2019-03-25 16:50:03:568
0.33,0.3,10.0,-0.11,0.03,0.0,0.0,0.0,-0.01,3266,2019-03-25 16:50:03:573
0.42,0.39,10.01,-0.01,0.08,0.04,0.0,0.0,0.0,3271,2019-03-25 16:50:03:578
0.42,0.39,10.01,-0.01,0.08,0.04,0.0,0.0,0.0,3276,2019-03-25 16:50:03:583
0.42,0.39,10.01,-0.01,0.08,0.04,0.0,0.0,0.0,3281,2019-03-25 16:50:03:588
0.42,0.39,10.01,-0.01,0.08,0.04,0.0,0.0,0.0,3286,2019-03-25 16:50:03:593
0.37,0.43,9.96,-0.05,0.12,0.0,0.0,0.0,0.0,3291,2019-03-25 16:50:03:598
0.37,0.43,9.96,-0.05,0.12,0.0,0.0,0.0,0.0,3296,2019-03-25 16:50:03:603
0.37,0.43,9.96,-0.05,0.12,0.0,0.0,0.0,0.0,3303,2019-03-25 16:50:03:610
0.37,0.43,9.96,-0.05,0.12,0.0,0.0,0.0,0.0,3306,2019-03-25 16:50:03:613
0.34,0.42,9.9,-0.05,0.11,-0.06,0.0,0.0,0.0,3311,2019-03-25 16:50:03:618
0.34,0.42,9.9,-0.05,0.11,-0.06,0.0,0.0,0.0,3316,2019-03-25 16:50:03:623
0.34,0.42,9.9,-0.05,0.11,-0.06,0.0,0.0,0.0,3321,2019-03-25 16:50:03:628
0.34,0.42,9.9,-0.05,0.11,-0.06,0.0,0.0,0.0,3326,2019-03-25 16:50:03:633
0.32,0.5,9.93,-0.05,0.18,-0.03,0.0,0.0,0.0,3331,2019-03-25 16:50:03:638
0.32,0.5,9.93,-0.05,0.18,-0.03,0.0,0.0,0.0,3336,2019-03-25 16:50:03:643
0.32,0.5,9.93,-0.05,0.18,-0.03,0.0,0.0,0.0,3341,2019-03-25 16:50:03:648
0.32,0.5,9.93,-0.05,0.18,-0.03,0.0,0.0,0.0,3347,2019-03-25 16:50:03:654
0.32,0.5,9.93,-0.05,0.18,-0.03,0.0,0.0,0.0,3351,2019-03-25 16:50:03:658
0.38,0.59,9.95,0.0,0.24,-0.01,0.0,0.0,0.0,3356,2019-03-25 16:50:03:663
0.38,0.59,9.95,0.0,0.24,-0.01,0.0,0.0,0.0,3361,2019-03-25 16:50:03:668
0.38,0.59,9.95,0.0,0.24,-0.01,0.0,0.0,0.0,3366,2019-03-25 16:50:03:673
0.38,0.59,9.95,0.0,0.24,-0.01,0.0,0.0,0.0,3371,2019-03-25 16:50:03:678
0.5,0.66,9.92,0.12,0.27,-0.04,0.0,0.0,0.0,3376,2019-03-25 16:50:03:683
0.5,0.66,9.92,0.12,0.27,-0.04,0.0,0.0,0.0,3382,2019-03-25 16:50:03:689
0.5,0.66,9.92,0.12,0.27,-0.04,0.0,0.0,0.0,3386,2019-03-25 16:50:03:693
0.42,0.61,9.97,0.05,0.18,0.01,0.0,0.0,0.0,3391,2019-03-25 16:50:03:698
0.42,0.61,9.97,0.05,0.18,0.01,0.0,0.0,0.0,3396,2019-03-25 16:50:03:703
0.42,0.61,9.97,0.05,0.18,0.01,0.0,0.0,0.0,3402,2019-03-25 16:50:03:709
0.42,0.61,9.97,0.05,0.18,0.01,0.0,0.0,0.0,3408,2019-03-25 16:50:03:715
0.42,0.61,9.97,0.05,0.18,0.01,0.0,0.0,0.0,3410,2019-03-25 16:50:03:717
0.42,0.61,9.97,0.05,0.18,0.01,0.0,0.0,0.0,3416,2019-03-25 16:50:03:723
0.43,0.61,9.94,0.05,0.14,-0.01,0.0,0.0,0.0,3421,2019-03-25 16:50:03:728
0.43,0.61,9.94,0.05,0.14,-0.01,0.0,0.0,0.0,3426,2019-03-25 16:50:03:733
0.39,0.48,9.92,0.05,0.14,-0.01,0.0,0.0,0.0,3431,2019-03-25 16:50:03:738
0.39,0.48,9.92,0.05,0.14,-0.01,0.0,0.0,0.0,3436,2019-03-25 16:50:03:743
0.39,0.48,9.92,0.05,0.14,-0.01,0.0,0.0,0.0,3441,2019-03-25 16:50:03:748
0.39,0.48,9.92,0.05,0.14,-0.01,0.0,0.0,0.0,3446,2019-03-25 16:50:03:753
0.45,0.51,9.91,0.04,0.0,-0.03,0.0,0.0,0.0,3452,2019-03-25 16:50:03:759
0.45,0.51,9.91,0.04,0.0,-0.03,0.0,0.0,0.0,3456,2019-03-25 16:50:03:763
0.45,0.51,9.91,0.04,0.0,-0.03,0.0,0.0,0.0,3461,2019-03-25 16:50:03:768
0.45,0.51,9.91,0.04,0.0,-0.03,0.0,0.0,0.0,3466,2019-03-25 16:50:03:773
0.47,0.4,9.97,0.05,-0.11,0.02,0.0,0.0,0.0,3472,2019-03-25 16:50:03:779
0.47,0.4,9.97,0.05,-0.11,0.02,0.0,0.0,0.0,3476,2019-03-25 16:50:03:783
0.47,0.4,9.97,0.05,-0.11,0.02,0.0,0.0,0.0,3481,2019-03-25 16:50:03:788
0.47,0.4,9.97,0.05,-0.11,0.02,0.0,0.0,0.0,3489,2019-03-25 16:50:03:796
0.47,0.4,9.97,0.05,-0.11,0.02,0.0,0.0,0.0,3491,2019-03-25 16:50:03:798
0.48,0.36,9.9,0.05,-0.14,-0.04,0.0,0.0,0.0,3496,2019-03-25 16:50:03:803
0.48,0.36,9.9,0.05,-0.14,-0.04,0.0,0.0,0.0,3502,2019-03-25 16:50:03:809
0.48,0.36,9.9,0.05,-0.14,-0.04,0.0,0.0,0.0,3506,2019-03-25 16:50:03:813
0.53,0.35,9.99,0.09,-0.15,0.05,0.0,0.0,0.0,3511,2019-03-25 16:50:03:818
0.53,0.35,9.99,0.09,-0.15,0.05,0.0,0.0,0.0,3516,2019-03-25 16:50:03:823
0.53,0.35,9.99,0.09,-0.15,0.05,0.0,0.0,0.0,3521,2019-03-25 16:50:03:828
0.53,0.35,9.99,0.09,-0.15,0.05,0.0,0.0,0.0,3527,2019-03-25 16:50:03:834
0.53,0.35,9.99,0.09,-0.15,0.05,0.0,0.0,0.0,3531,2019-03-25 16:50:03:838
0.46,0.3,10.0,0.0,-0.19,0.05,0.0,0.0,0.0,3536,2019-03-25 16:50:03:843
0.46,0.3,10.0,0.0,-0.19,0.05,0.0,0.0,0.0,3541,2019-03-25 16:50:03:848
0.46,0.3,10.0,0.0,-0.19,0.05,0.0,0.0,0.0,3546,2019-03-25 16:50:03:853
0.46,0.3,10.0,0.0,-0.19,0.05,0.0,0.0,0.0,3550,2019-03-25 16:50:03:857
0.38,0.24,10.02,-0.07,-0.21,0.06,0.0,0.0,0.0,3556,2019-03-25 16:50:03:863
0.38,0.24,10.02,-0.07,-0.21,0.06,0.0,0.0,0.0,3563,2019-03-25 16:50:03:870
0.38,0.24,10.02,-0.07,-0.21,0.06,0.0,0.0,0.0,3566,2019-03-25 16:50:03:873
0.38,0.24,10.02,-0.07,-0.21,0.06,0.0,0.0,0.0,3571,2019-03-25 16:50:03:878
0.41,0.27,9.93,-0.02,-0.15,-0.02,0.0,0.0,0.0,3576,2019-03-25 16:50:03:883
0.41,0.27,9.93,-0.02,-0.15,-0.02,0.0,0.0,0.0,3581,2019-03-25 16:50:03:888
0.41,0.27,9.93,-0.02,-0.15,-0.02,0.0,0.0,0.0,3590,2019-03-25 16:50:03:897
0.41,0.27,9.93,-0.02,-0.15,-0.02,0.0,0.0,0.0,3591,2019-03-25 16:50:03:898
0.36,0.28,9.96,-0.07,-0.1,0.0,0.0,0.0,0.0,3596,2019-03-25 16:50:03:903
0.36,0.28,9.96,-0.07,-0.1,0.0,0.0,0.0,0.0,3601,2019-03-25 16:50:03:908
0.36,0.28,9.96,-0.07,-0.1,0.0,0.0,0.0,0.0,3606,2019-03-25 16:50:03:913
0.36,0.28,9.96,-0.07,-0.1,0.0,0.0,0.0,0.0,3611,2019-03-25 16:50:03:918
0.38,0.34,9.95,-0.04,-0.01,0.0,0.0,0.0,0.0,3616,2019-03-25 16:50:03:923
0.38,0.34,9.95,-0.04,-0.01,0.0,0.0,0.0,0.0,3621,2019-03-25 16:50:03:928
0.38,0.34,9.95,-0.04,-0.01,0.0,0.0,0.0,0.0,3626,2019-03-25 16:50:03:933
0.38,0.34,9.95,-0.04,-0.01,0.0,0.0,0.0,0.0,3631,2019-03-25 16:50:03:938
0.37,0.36,9.95,-0.04,0.01,0.0,0.0,0.0,0.0,3636,2019-03-25 16:50:03:943
0.37,0.36,9.95,-0.04,0.01,0.0,0.0,0.0,0.0,3641,2019-03-25 16:50:03:948
0.37,0.36,9.95,-0.04,0.01,0.0,0.0,0.0,0.0,3646,2019-03-25 16:50:03:953
0.37,0.41,9.97,-0.04,0.07,0.0,0.0,0.0,0.0,3651,2019-03-25 16:50:03:958
0.37,0.41,9.97,-0.04,0.07,0.0,0.0,0.0,0.0,3656,2019-03-25 16:50:03:963
0.37,0.41,9.97,-0.04,0.07,0.0,0.0,0.0,0.0,3661,2019-03-25 16:50:03:968
0.37,0.41,9.97,-0.04,0.07,0.0,0.0,0.0,0.0,3666,2019-03-25 16:50:03:973
0.39,0.38,9.95,-0.01,0.04,-0.01,0.0,0.0,0.0,3671,2019-03-25 16:50:03:978
0.39,0.38,9.95,-0.01,0.04,-0.01,0.0,0.0,0.0,3676,2019-03-25 16:50:03:983
0.39,0.38,9.95,-0.01,0.04,-0.01,0.0,0.0,0.0,3681,2019-03-25 16:50:03:988
0.39,0.38,9.95,-0.01,0.04,-0.01,0.0,0.0,0.0,3686,2019-03-25 16:50:03:993
0.4,0.4,9.96,0.0,0.06,0.0,0.0,0.0,0.0,3691,2019-03-25 16:50:03:998
0.4,0.4,9.96,0.0,0.06,0.0,0.0,0.0,0.0,3696,2019-03-25 16:50:04:003
0.4,0.4,9.96,0.0,0.06,0.0,0.0,0.0,0.0,3701,2019-03-25 16:50:04:008
0.4,0.4,9.96,0.0,0.06,0.0,0.0,0.0,0.0,3706,2019-03-25 16:50:04:013
0.4,0.4,9.96,0.0,0.06,0.0,0.0,0.0,0.0,3711,2019-03-25 16:50:04:018
0.4,0.4,9.96,0.0,0.06,0.0,0.0,0.0,0.0,3716,2019-03-25 16:50:04:023
0.41,0.45,9.98,0.01,0.1,0.01,0.0,0.0,0.0,3721,2019-03-25 16:50:04:028
0.41,0.45,9.98,0.01,0.1,0.01,0.0,0.0,0.0,3726,2019-03-25 16:50:04:033
0.41,0.45,9.98,0.01,0.1,0.01,0.0,0.0,0.0,3733,2019-03-25 16:50:04:040
0.41,0.45,9.98,0.06,0.13,-0.01,0.0,0.0,0.0,3736,2019-03-25 16:50:04:043
0.41,0.45,9.98,0.06,0.13,-0.01,0.0,0.0,0.0,3741,2019-03-25 16:50:04:048
0.41,0.45,9.98,0.06,0.13,-0.01,0.0,0.0,0.0,3746,2019-03-25 16:50:04:053
0.41,0.45,9.98,0.06,0.13,-0.01,0.0,0.0,0.0,3751,2019-03-25 16:50:04:058
0.46,0.48,9.96,0.05,0.1,0.01,0.0,0.0,0.0,3756,2019-03-25 16:50:04:063
0.46,0.48,9.96,0.05,0.1,0.01,0.0,0.0,0.0,3761,2019-03-25 16:50:04:068
0.41,0.53,9.97,0.0,0.13,0.01,0.0,0.0,0.0,3770,2019-03-25 16:50:04:077
0.41,0.53,9.97,0.0,0.13,0.01,0.0,0.0,0.0,3770,2019-03-25 16:50:04:077
0.41,0.53,9.97,0.0,0.13,0.01,0.0,0.0,0.0,3776,2019-03-25 16:50:04:083
0.41,0.53,9.97,0.0,0.13,0.01,0.0,0.0,0.0,3781,2019-03-25 16:50:04:088
0.42,0.48,9.98,0.0,0.13,0.01,0.0,0.0,0.0,3786,2019-03-25 16:50:04:093
0.42,0.48,9.98,0.0,0.05,0.03,0.0,0.0,0.0,3792,2019-03-25 16:50:04:099
0.42,0.48,9.98,0.0,0.05,0.03,0.0,0.0,0.0,3797,2019-03-25 16:50:04:104
0.42,0.48,9.98,0.0,0.05,0.03,0.0,0.0,0.0,3801,2019-03-25 16:50:04:108
0.42,0.48,9.98,0.0,0.05,0.03,0.0,0.0,0.0,3806,2019-03-25 16:50:04:113
0.46,0.43,9.93,0.04,0.0,-0.01,0.0,0.0,0.0,3811,2019-03-25 16:50:04:118
0.46,0.43,9.93,0.04,0.0,-0.01,0.0,0.0,0.0,3816,2019-03-25 16:50:04:123
0.46,0.43,9.93,0.04,0.0,-0.01,0.0,0.0,0.0,3821,2019-03-25 16:50:04:128
0.46,0.43,9.93,0.04,0.0,-0.01,0.0,0.0,0.0,3826,2019-03-25 16:50:04:133
0.46,0.34,9.95,0.03,-0.09,0.0,0.0,0.0,0.0,3831,2019-03-25 16:50:04:138
0.46,0.34,9.95,0.03,-0.09,0.0,0.0,0.0,0.0,3836,2019-03-25 16:50:04:143
0.46,0.34,9.95,0.03,-0.09,0.0,0.0,0.0,0.0,3841,2019-03-25 16:50:04:148
0.46,0.34,9.95,0.03,-0.09,0.0,0.0,0.0,0.0,3846,2019-03-25 16:50:04:153
0.46,0.34,9.95,0.03,-0.09,0.0,0.0,0.0,0.0,3851,2019-03-25 16:50:04:158
0.47,0.23,9.99,0.03,-0.19,0.04,0.0,0.0,0.0,3856,2019-03-25 16:50:04:163
0.47,0.23,9.99,0.03,-0.19,0.04,0.0,0.0,0.0,3861,2019-03-25 16:50:04:168
0.47,0.23,9.99,0.03,-0.19,0.04,0.0,0.0,0.0,3866,2019-03-25 16:50:04:173
0.47,0.2,9.95,0.03,-0.2,0.0,0.0,0.0,0.0,3872,2019-03-25 16:50:04:179
0.47,0.2,9.95,0.03,-0.2,0.0,0.0,0.0,0.0,3876,2019-03-25 16:50:04:183
0.47,0.2,9.95,0.03,-0.2,0.0,0.0,0.0,0.0,3881,2019-03-25 16:50:04:188
0.47,0.2,9.95,0.03,-0.2,0.0,0.0,0.0,0.0,3886,2019-03-25 16:50:04:193
0.48,0.2,9.96,0.03,-0.17,0.01,0.0,0.0,0.0,3891,2019-03-25 16:50:04:198
0.48,0.2,9.96,0.03,-0.17,0.01,0.0,0.0,0.0,3896,2019-03-25 16:50:04:203
0.48,0.2,9.96,0.03,-0.17,0.01,0.0,0.0,0.0,3901,2019-03-25 16:50:04:208
0.48,0.2,9.96,0.03,-0.17,0.01,0.0,0.0,0.0,3906,2019-03-25 16:50:04:213
0.43,0.31,9.91,-0.02,-0.04,-0.03,0.0,0.0,0.0,3911,2019-03-25 16:50:04:218
0.43,0.31,9.91,-0.02,-0.04,-0.03,0.0,0.0,0.0,3916,2019-03-25 16:50:04:223
0.43,0.31,9.91,-0.02,-0.04,-0.03,0.0,0.0,0.0,3921,2019-03-25 16:50:04:228
0.43,0.31,9.91,-0.02,-0.04,-0.03,0.0,0.0,0.0,3926,2019-03-25 16:50:04:233
0.51,0.46,9.88,0.05,0.1,-0.06,0.0,0.0,0.0,3931,2019-03-25 16:50:04:238
0.51,0.46,9.88,0.05,0.1,-0.06,0.0,0.0,0.0,3936,2019-03-25 16:50:04:243
0.51,0.46,9.88,0.05,0.1,-0.06,0.0,0.0,0.0,3941,2019-03-25 16:50:04:248
0.51,0.46,9.88,0.05,0.1,-0.06,0.0,0.0,0.0,3946,2019-03-25 16:50:04:253
0.44,0.47,9.94,-0.01,0.1,-0.01,0.0,0.0,0.0,3952,2019-03-25 16:50:04:259
0.44,0.47,9.94,-0.01,0.1,-0.01,0.0,0.0,0.0,3955,2019-03-25 16:50:04:262
0.44,0.47,9.94,-0.01,0.1,-0.01,0.0,0.0,0.0,3961,2019-03-25 16:50:04:268
0.44,0.47,9.94,-0.01,0.1,-0.01,0.0,0.0,0.0,3965,2019-03-25 16:50:04:272
0.38,0.47,9.92,-0.06,0.11,-0.02,0.0,0.0,-0.01,3971,2019-03-25 16:50:04:278
0.38,0.47,9.92,-0.06,0.11,-0.02,0.0,0.0,-0.01,3976,2019-03-25 16:50:04:283
0.38,0.47,9.92,-0.06,0.11,-0.02,0.0,0.0,-0.01,3981,2019-03-25 16:50:04:288
0.38,0.47,9.92,-0.06,0.11,-0.02,0.0,0.0,-0.01,3985,2019-03-25 16:50:04:292
0.37,0.38,10.01,-0.07,0.03,0.05,0.0,0.0,-0.01,3991,2019-03-25 16:50:04:298
0.37,0.38,10.01,-0.07,0.03,0.05,0.0,0.0,-0.01,3996,2019-03-25 16:50:04:303
0.37,0.38,10.01,-0.07,0.03,0.05,0.0,0.0,-0.01,4001,2019-03-25 16:50:04:308
0.37,0.38,10.01,-0.07,0.03,0.05,0.0,0.0,-0.01,4006,2019-03-25 16:50:04:313
0.37,0.38,10.01,-0.07,0.03,0.05,0.0,0.0,-0.01,4011,2019-03-25 16:50:04:318
0.37,0.38,10.01,-0.07,0.03,0.05,0.0,0.0,-0.01,4015,2019-03-25 16:50:04:322
0.38,0.34,10.0,-0.05,0.0,0.04,0.0,0.0,-0.02,4021,2019-03-25 16:50:04:328
0.38,0.34,10.0,-0.05,0.0,0.04,0.0,0.0,-0.02,4026,2019-03-25 16:50:04:333
0.38,0.34,10.0,-0.07,-0.07,-0.02,0.0,0.0,-0.02,4031,2019-03-25 16:50:04:338
0.38,0.34,10.0,-0.07,-0.07,-0.02,0.0,0.0,-0.02,4035,2019-03-25 16:50:04:342
0.38,0.34,10.0,-0.07,-0.07,-0.02,0.0,0.0,-0.02,4041,2019-03-25 16:50:04:348
0.38,0.34,10.0,-0.07,-0.07,-0.02,0.0,0.0,-0.02,4047,2019-03-25 16:50:04:354
0.44,0.21,9.97,0.02,-0.1,0.02,0.0,0.0,-0.01,4051,2019-03-25 16:50:04:358
0.44,0.21,9.97,0.02,-0.1,0.02,0.0,0.0,-0.01,4056,2019-03-25 16:50:04:363
0.44,0.21,9.97,0.02,-0.1,0.02,0.0,0.0,-0.01,4061,2019-03-25 16:50:04:368
0.44,0.21,9.97,0.02,-0.1,0.02,0.0,0.0,-0.01,4066,2019-03-25 16:50:04:373
0.44,0.21,9.97,0.02,-0.1,0.02,0.0,0.0,-0.01,4071,2019-03-25 16:50:04:378
0.44,0.21,9.97,0.02,-0.1,0.02,0.0,0.0,-0.01,4076,2019-03-25 16:50:04:383
0.44,0.21,9.97,0.02,-0.1,0.02,0.0,0.0,-0.01,4081,2019-03-25 16:50:04:388
0.42,0.37,9.94,0.0,0.03,-0.01,0.0,0.0,0.0,4085,2019-03-25 16:50:04:392
0.42,0.37,9.94,0.0,0.03,-0.01,0.0,0.0,0.0,4091,2019-03-25 16:50:04:398
0.42,0.37,9.94,0.0,0.03,-0.01,0.0,0.0,0.0,4096,2019-03-25 16:50:04:403
0.45,0.58,9.99,0.04,0.2,0.04,0.0,0.0,0.0,4101,2019-03-25 16:50:04:408
0.45,0.58,9.99,0.04,0.2,0.04,0.0,0.0,0.0,4106,2019-03-25 16:50:04:413
0.45,0.58,9.99,0.04,0.2,0.04,0.0,0.0,0.0,4113,2019-03-25 16:50:04:420
0.45,0.62,9.91,0.03,0.22,-0.03,0.0,0.0,0.0,4116,2019-03-25 16:50:04:423
0.45,0.62,9.91,0.03,0.22,-0.03,0.0,0.0,0.0,4121,2019-03-25 16:50:04:428
0.45,0.62,9.91,0.03,0.22,-0.03,0.0,0.0,0.0,4126,2019-03-25 16:50:04:433
0.43,0.54,9.93,0.02,0.12,-0.01,0.0,0.0,0.0,4131,2019-03-25 16:50:04:438
0.43,0.54,9.93,0.02,0.12,-0.01,0.0,0.0,0.0,4137,2019-03-25 16:50:04:444
0.43,0.54,9.93,0.02,0.12,-0.01,0.0,0.0,0.0,4141,2019-03-25 16:50:04:448
0.4,0.4,9.96,0.02,0.12,-0.01,0.0,0.0,0.0,4147,2019-03-25 16:50:04:454
0.4,0.4,9.96,-0.01,0.08,0.0,0.0,0.0,0.0,4152,2019-03-25 16:50:04:459
0.4,0.4,9.96,-0.01,0.08,0.0,0.0,0.0,0.0,4156,2019-03-25 16:50:04:463
0.4,0.4,9.96,-0.01,0.08,0.0,0.0,0.0,0.0,4161,2019-03-25 16:50:04:468
0.4,0.33,9.91,0.0,-0.08,-0.03,0.0,0.0,0.0,4166,2019-03-25 16:50:04:473
0.4,0.33,9.91,0.0,-0.08,-0.03,0.0,0.0,0.0,4171,2019-03-25 16:50:04:478
0.4,0.33,9.91,0.0,-0.08,-0.03,0.0,0.0,0.0,4176,2019-03-25 16:50:04:483
0.51,0.3,9.91,0.09,-0.09,-0.03,0.0,0.0,0.0,4182,2019-03-25 16:50:04:489
0.51,0.3,9.91,0.09,-0.09,-0.03,0.0,0.0,0.0,4186,2019-03-25 16:50:04:493
0.51,0.3,9.91,0.09,-0.09,-0.03,0.0,0.0,0.0,4191,2019-03-25 16:50:04:498
0.44,0.4,9.94,0.09,-0.09,-0.03,0.0,0.0,0.0,4197,2019-03-25 16:50:04:504
0.44,0.4,9.94,0.02,0.0,0.0,0.0,0.0,0.0,4201,2019-03-25 16:50:04:508
0.44,0.4,9.94,0.02,0.0,0.0,0.0,0.0,0.0,4206,2019-03-25 16:50:04:513
0.44,0.4,9.94,0.02,0.0,0.0,0.0,0.0,0.0,4211,2019-03-25 16:50:04:518
0.44,0.4,9.94,0.02,0.0,0.0,0.0,0.0,0.0,4216,2019-03-25 16:50:04:523
0.44,0.4,9.94,0.02,0.0,0.0,0.0,0.0,0.0,4222,2019-03-25 16:50:04:529
0.44,0.4,9.94,0.02,0.0,0.0,0.0,0.0,0.0,4226,2019-03-25 16:50:04:533
0.3,0.45,9.96,-0.11,0.03,0.02,0.0,0.0,0.0,4231,2019-03-25 16:50:04:538
0.3,0.45,9.96,-0.11,0.03,0.02,0.0,0.0,0.0,4236,2019-03-25 16:50:04:543
0.3,0.45,9.96,-0.11,0.03,0.02,0.0,0.0,0.0,4241,2019-03-25 16:50:04:548
0.3,0.45,9.96,-0.11,0.03,0.02,0.0,0.0,0.0,4246,2019-03-25 16:50:04:553
0.3,0.45,9.96,-0.11,0.03,0.02,0.0,0.0,0.0,4251,2019-03-25 16:50:04:558
0.3,0.45,9.96,-0.11,0.03,0.02,0.0,0.0,0.0,4256,2019-03-25 16:50:04:563
0.3,0.45,9.96,-0.11,0.03,0.02,0.0,0.0,0.0,4261,2019-03-25 16:50:04:568
0.33,0.53,9.91,-0.06,0.05,-0.02,0.0,0.0,0.0,4266,2019-03-25 16:50:04:573
0.33,0.53,9.91,-0.06,0.05,-0.02,0.0,0.0,0.0,4271,2019-03-25 16:50:04:578
0.33,0.53,9.91,-0.06,0.05,-0.02,0.0,0.0,0.0,4276,2019-03-25 16:50:04:583
0.38,0.59,9.93,-0.02,0.11,0.0,0.0,0.0,0.0,4281,2019-03-25 16:50:04:588
0.38,0.59,9.93,-0.02,0.11,0.0,0.0,0.0,0.0,4286,2019-03-25 16:50:04:593
0.38,0.59,9.93,-0.02,0.11,0.0,0.0,0.0,0.0,4291,2019-03-25 16:50:04:598
0.42,0.57,9.91,-0.02,0.11,0.0,0.0,0.0,0.0,4296,2019-03-25 16:50:04:603
0.42,0.57,9.91,0.03,0.09,-0.01,0.0,0.0,0.0,4301,2019-03-25 16:50:04:608
0.42,0.57,9.91,0.03,0.09,-0.01,0.0,0.0,0.0,4307,2019-03-25 16:50:04:614
0.42,0.57,9.91,0.03,0.09,-0.01,0.0,0.0,0.0,4311,2019-03-25 16:50:04:618
0.42,0.57,9.91,0.03,0.09,-0.01,0.0,0.0,0.0,4316,2019-03-25 16:50:04:623
0.42,0.57,9.91,0.03,0.09,-0.01,0.0,0.0,0.0,4321,2019-03-25 16:50:04:628
0.42,0.57,9.91,0.03,0.09,-0.01,0.0,0.0,0.0,4326,2019-03-25 16:50:04:633
0.38,0.61,9.98,0.01,0.12,0.04,0.0,0.0,0.0,4331,2019-03-25 16:50:04:638
0.38,0.61,9.98,0.01,0.12,0.04,0.0,0.0,0.0,4336,2019-03-25 16:50:04:643
0.38,0.61,9.98,0.01,0.12,0.04,0.0,0.0,0.0,4341,2019-03-25 16:50:04:648
0.38,0.61,9.98,0.01,0.12,0.04,0.0,0.0,0.0,4346,2019-03-25 16:50:04:653
0.35,0.49,9.95,-0.01,0.0,0.0,0.0,0.0,0.0,4351,2019-03-25 16:50:04:658
0.35,0.49,9.95,-0.01,0.0,0.0,0.0,0.0,0.0,4356,2019-03-25 16:50:04:663
0.39,0.39,9.98,0.02,-0.1,0.03,0.0,0.0,0.0,4361,2019-03-25 16:50:04:668
0.39,0.39,9.98,0.02,-0.1,0.03,0.0,0.0,0.0,4366,2019-03-25 16:50:04:673
0.39,0.39,9.98,0.02,-0.1,0.03,0.0,0.0,0.0,4371,2019-03-25 16:50:04:678
0.39,0.39,9.98,0.02,-0.1,0.03,0.0,0.0,0.0,4376,2019-03-25 16:50:04:683
0.35,0.3,9.99,0.0,-0.19,0.03,0.0,0.0,0.0,4381,2019-03-25 16:50:04:688
0.35,0.3,9.99,0.0,-0.19,0.03,0.0,0.0,0.0,4386,2019-03-25 16:50:04:693
0.35,0.3,9.99,0.0,-0.19,0.03,0.0,0.0,0.0,4391,2019-03-25 16:50:04:698
0.35,0.3,9.99,0.0,-0.19,0.03,0.0,0.0,0.0,4396,2019-03-25 16:50:04:703
0.35,0.3,9.99,0.0,-0.19,0.03,0.0,0.0,0.0,4401,2019-03-25 16:50:04:708
0.35,0.3,9.99,0.0,-0.19,0.03,0.0,0.0,0.0,4406,2019-03-25 16:50:04:713
0.45,0.3,9.93,0.09,-0.18,-0.02,0.0,0.0,0.0,4411,2019-03-25 16:50:04:718
0.45,0.3,9.93,0.09,-0.18,-0.02,0.0,0.0,0.0,4415,2019-03-25 16:50:04:722
0.45,0.3,9.93,0.09,-0.18,-0.02,0.0,0.0,0.0,4420,2019-03-25 16:50:04:727
0.45,0.3,9.93,0.09,-0.18,-0.02,0.0,0.0,0.0,4426,2019-03-25 16:50:04:733
0.45,0.3,9.93,0.09,-0.18,-0.02,0.0,0.0,0.0,4432,2019-03-25 16:50:04:739
0.45,0.3,9.93,0.09,-0.18,-0.02,0.0,0.0,0.0,4436,2019-03-25 16:50:04:743
0.55,0.25,9.98,0.14,-0.17,0.02,0.0,0.0,0.01,4440,2019-03-25 16:50:04:747
0.55,0.25,9.98,0.14,-0.17,0.02,0.0,0.0,0.01,4446,2019-03-25 16:50:04:753
0.55,0.25,9.98,0.14,-0.17,0.02,0.0,0.0,0.01,4453,2019-03-25 16:50:04:760
0.55,0.25,9.98,0.14,-0.17,0.02,0.0,0.0,0.01,4456,2019-03-25 16:50:04:763
0.43,0.21,9.95,0.14,-0.17,0.02,0.0,0.0,0.01,4461,2019-03-25 16:50:04:768
0.43,0.21,9.95,0.0,-0.18,-0.01,0.0,0.0,0.01,4466,2019-03-25 16:50:04:773
0.43,0.21,9.95,0.0,-0.18,-0.01,0.0,0.0,0.01,4471,2019-03-25 16:50:04:778
0.43,0.21,9.95,0.0,-0.18,-0.01,0.0,0.0,0.01,4476,2019-03-25 16:50:04:783
0.48,0.25,9.9,0.06,-0.1,-0.07,0.0,0.0,0.01,4481,2019-03-25 16:50:04:788
0.48,0.25,9.9,0.06,-0.1,-0.07,0.0,0.0,0.01,4486,2019-03-25 16:50:04:793
0.48,0.25,9.9,0.06,-0.1,-0.07,0.0,0.0,0.01,4491,2019-03-25 16:50:04:798
0.48,0.25,9.9,0.06,-0.1,-0.07,0.0,0.0,0.01,4496,2019-03-25 16:50:04:803
0.48,0.25,9.9,0.06,-0.1,-0.07,0.0,0.0,0.01,4501,2019-03-25 16:50:04:808
0.48,0.25,9.9,0.06,-0.1,-0.07,0.0,0.0,0.01,4508,2019-03-25 16:50:04:815
0.43,0.21,10.0,0.0,-0.1,0.03,0.0,0.0,0.0,4511,2019-03-25 16:50:04:818
0.43,0.21,10.0,0.0,-0.1,0.03,0.0,0.0,0.0,4516,2019-03-25 16:50:04:823
0.43,0.21,10.0,0.0,-0.1,0.03,0.0,0.0,0.0,4521,2019-03-25 16:50:04:828
0.43,0.21,10.0,0.0,-0.1,0.03,0.0,0.0,0.0,4526,2019-03-25 16:50:04:833
0.37,0.15,9.99,-0.06,-0.12,0.02,0.0,0.0,0.0,4531,2019-03-25 16:50:04:838
0.37,0.15,9.99,-0.06,-0.12,0.02,0.0,0.0,0.0,4536,2019-03-25 16:50:04:843
0.37,0.15,9.99,-0.06,-0.12,0.02,0.0,0.0,0.0,4541,2019-03-25 16:50:04:848
0.37,0.15,9.99,-0.06,-0.12,0.02,0.0,0.0,0.0,4546,2019-03-25 16:50:04:853
0.37,0.15,9.99,-0.06,-0.02,0.01,0.0,0.0,0.01,4551,2019-03-25 16:50:04:858
0.37,0.15,9.99,-0.06,-0.02,0.01,0.0,0.0,0.01,4556,2019-03-25 16:50:04:863
0.37,0.15,9.99,-0.06,-0.02,0.01,0.0,0.0,0.01,4560,2019-03-25 16:50:04:867
0.38,0.22,9.99,-0.05,0.0,0.02,0.0,0.0,0.01,4568,2019-03-25 16:50:04:875
0.38,0.22,9.99,-0.05,0.0,0.02,0.0,0.0,0.01,4571,2019-03-25 16:50:04:878
0.38,0.22,9.99,-0.05,0.0,0.02,0.0,0.0,0.01,4575,2019-03-25 16:50:04:882
0.41,0.36,9.92,-0.02,0.14,-0.03,0.0,0.0,0.01,4581,2019-03-25 16:50:04:888
0.41,0.36,9.92,-0.02,0.14,-0.03,0.0,0.0,0.01,4586,2019-03-25 16:50:04:893
0.41,0.36,9.92,-0.02,0.14,-0.03,0.0,0.0,0.01,4591,2019-03-25 16:50:04:898
0.41,0.36,9.92,-0.02,0.14,-0.03,0.0,0.0,0.01,4596,2019-03-25 16:50:04:903
0.42,0.48,9.98,-0.01,0.25,0.01,0.0,0.0,0.01,4601,2019-03-25 16:50:04:908
0.42,0.48,9.98,-0.01,0.25,0.01,0.0,0.0,0.01,4606,2019-03-25 16:50:04:913
0.42,0.48,9.98,-0.01,0.25,0.01,0.0,0.0,0.01,4611,2019-03-25 16:50:04:918
0.42,0.48,9.98,-0.01,0.25,0.01,0.0,0.0,0.01,4616,2019-03-25 16:50:04:923
0.42,0.48,9.98,-0.01,0.25,0.01,0.0,0.0,0.01,4622,2019-03-25 16:50:04:929
0.42,0.48,9.98,-0.01,0.25,0.01,0.0,0.0,0.01,4626,2019-03-25 16:50:04:933
0.42,0.56,9.87,0.0,0.29,-0.08,0.0,0.0,0.01,4631,2019-03-25 16:50:04:938
0.42,0.56,9.87,0.0,0.29,-0.08,0.0,0.0,0.01,4636,2019-03-25 16:50:04:943
0.42,0.56,9.87,0.0,0.29,-0.08,0.0,0.0,0.01,4641,2019-03-25 16:50:04:948
0.42,0.56,9.87,0.0,0.29,-0.08,0.0,0.0,0.01,4646,2019-03-25 16:50:04:953
0.45,0.62,9.86,0.03,0.31,-0.08,0.0,0.0,0.0,4651,2019-03-25 16:50:04:958
0.45,0.62,9.86,0.03,0.31,-0.08,0.0,0.0,0.0,4656,2019-03-25 16:50:04:963
0.49,0.59,9.92,0.07,0.24,-0.02,0.0,0.0,0.0,4661,2019-03-25 16:50:04:968
0.49,0.59,9.92,0.07,0.24,-0.02,0.0,0.0,0.0,4666,2019-03-25 16:50:04:973
0.49,0.59,9.92,0.07,0.24,-0.02,0.0,0.0,0.0,4671,2019-03-25 16:50:04:978
0.49,0.59,9.92,0.07,0.24,-0.02,0.0,0.0,0.0,4676,2019-03-25 16:50:04:983
0.49,0.59,9.92,0.07,0.24,-0.02,0.0,0.0,0.0,4682,2019-03-25 16:50:04:989
0.5,0.6,9.97,0.07,0.21,0.01,0.0,0.0,0.0,4685,2019-03-25 16:50:04:992
0.5,0.6,9.97,0.07,0.21,0.01,0.0,0.0,0.0,4691,2019-03-25 16:50:04:998
0.5,0.6,9.97,0.07,0.21,0.01,0.0,0.0,0.0,4696,2019-03-25 16:50:05:003
0.45,0.48,9.98,0.01,0.07,0.03,0.0,0.0,0.0,4701,2019-03-25 16:50:05:008
0.45,0.48,9.98,0.01,0.07,0.03,0.0,0.0,0.0,4706,2019-03-25 16:50:05:013
0.45,0.48,9.98,0.01,0.07,0.03,0.0,0.0,0.0,4711,2019-03-25 16:50:05:018
0.45,0.48,9.98,0.01,0.07,0.03,0.0,0.0,0.0,4716,2019-03-25 16:50:05:023
0.45,0.48,9.98,0.01,0.07,0.03,0.0,0.0,0.0,4721,2019-03-25 16:50:05:028
0.45,0.48,9.98,0.01,0.07,0.03,0.0,0.0,0.0,4726,2019-03-25 16:50:05:033
0.44,0.43,9.9,0.0,-0.01,-0.04,0.0,0.0,0.0,4731,2019-03-25 16:50:05:038
0.44,0.43,9.9,0.0,-0.01,-0.04,0.0,0.0,0.0,4736,2019-03-25 16:50:05:043
0.44,0.43,9.9,0.02,-0.1,0.12,0.0,0.0,0.0,4742,2019-03-25 16:50:05:049
0.44,0.43,9.9,0.02,-0.1,0.12,0.0,0.0,0.0,4746,2019-03-25 16:50:05:053
0.44,0.43,9.9,0.02,-0.1,0.12,0.0,0.0,0.0,4751,2019-03-25 16:50:05:058
0.44,0.43,9.9,0.02,-0.1,0.12,0.0,0.0,0.0,4756,2019-03-25 16:50:05:063
0.44,0.43,9.9,0.02,-0.1,0.12,0.0,0.0,0.0,4761,2019-03-25 16:50:05:068
0.46,0.43,9.99,0.01,-0.05,0.04,0.0,0.0,0.0,4766,2019-03-25 16:50:05:073
0.46,0.43,9.99,0.01,-0.05,0.04,0.0,0.0,0.0,4771,2019-03-25 16:50:05:078
0.46,0.43,9.99,0.01,-0.05,0.04,0.0,0.0,0.0,4777,2019-03-25 16:50:05:084
0.55,0.43,9.95,0.1,-0.06,0.0,0.0,0.0,0.0,4782,2019-03-25 16:50:05:089
0.55,0.43,9.95,0.1,-0.06,0.0,0.0,0.0,0.0,4786,2019-03-25 16:50:05:093
0.55,0.43,9.95,0.1,-0.06,0.0,0.0,0.0,0.0,4791,2019-03-25 16:50:05:098
0.43,0.41,9.92,-0.02,-0.08,-0.02,0.0,0.0,0.0,4796,2019-03-25 16:50:05:103
0.43,0.41,9.92,-0.02,-0.08,-0.02,0.0,0.0,0.0,4801,2019-03-25 16:50:05:108
0.43,0.41,9.92,-0.02,-0.08,-0.02,0.0,0.0,0.0,4806,2019-03-25 16:50:05:113
0.43,0.41,9.92,-0.02,-0.08,-0.02,0.0,0.0,0.0,4811,2019-03-25 16:50:05:118
0.43,0.41,9.92,-0.02,-0.08,-0.02,0.0,0.0,0.0,4816,2019-03-25 16:50:05:123
0.43,0.41,9.92,-0.02,-0.08,-0.02,0.0,0.0,0.0,4821,2019-03-25 16:50:05:128
0.43,0.41,9.92,-0.02,-0.08,-0.02,0.0,0.0,0.0,4826,2019-03-25 16:50:05:133
0.43,0.37,9.91,-0.02,-0.1,-0.03,0.0,0.0,0.0,4830,2019-03-25 16:50:05:137
0.43,0.37,9.91,-0.02,-0.1,-0.03,0.0,0.0,0.0,4836,2019-03-25 16:50:05:143
0.43,0.37,9.91,-0.02,-0.1,-0.03,0.0,0.0,0.0,4841,2019-03-25 16:50:05:148
0.43,0.37,9.91,-0.02,-0.1,-0.03,0.0,0.0,0.0,4846,2019-03-25 16:50:05:153
0.48,0.39,9.93,0.02,-0.06,-0.01,0.0,0.0,0.0,4851,2019-03-25 16:50:05:158
0.48,0.39,9.93,0.02,-0.06,-0.01,0.0,0.0,0.0,4857,2019-03-25 16:50:05:164
0.48,0.39,9.93,0.02,-0.06,-0.01,0.0,0.0,0.0,4861,2019-03-25 16:50:05:168
0.48,0.39,9.93,0.02,-0.06,-0.01,0.0,0.0,0.0,4866,2019-03-25 16:50:05:173
0.44,0.36,9.98,-0.01,-0.07,0.02,0.0,0.0,0.0,4871,2019-03-25 16:50:05:178
0.44,0.36,9.98,-0.01,-0.07,0.02,0.0,0.0,0.0,4876,2019-03-25 16:50:05:183
0.44,0.36,9.98,-0.01,-0.07,0.02,0.0,0.0,0.0,4881,2019-03-25 16:50:05:188
0.41,0.37,9.95,-0.03,-0.03,0.0,0.0,0.0,0.0,4885,2019-03-25 16:50:05:192
0.41,0.37,9.95,-0.03,-0.03,0.0,0.0,0.0,0.0,4891,2019-03-25 16:50:05:198
0.41,0.37,9.95,-0.03,-0.03,0.0,0.0,0.0,0.0,4896,2019-03-25 16:50:05:203
0.41,0.37,9.95,-0.03,-0.03,0.0,0.0,0.0,0.0,4901,2019-03-25 16:50:05:208
0.41,0.37,9.95,-0.03,-0.03,0.0,0.0,0.0,0.0,4906,2019-03-25 16:50:05:213
0.37,0.39,9.94,-0.07,0.0,0.0,0.0,0.0,0.0,4911,2019-03-25 16:50:05:218
0.37,0.39,9.94,-0.07,0.0,0.0,0.0,0.0,0.0,4917,2019-03-25 16:50:05:224
0.37,0.39,9.94,-0.07,0.0,0.0,0.0,0.0,0.0,4921,2019-03-25 16:50:05:228
0.37,0.39,9.94,-0.07,0.0,0.0,0.0,0.0,0.0,4926,2019-03-25 16:50:05:233
0.44,0.46,9.98,0.0,0.06,0.02,0.0,0.0,0.0,4931,2019-03-25 16:50:05:238
0.44,0.46,9.98,0.0,0.06,0.02,0.0,0.0,0.0,4936,2019-03-25 16:50:05:243
0.44,0.46,9.98,0.0,0.06,0.02,0.0,0.0,0.0,4941,2019-03-25 16:50:05:248
0.44,0.46,9.98,0.0,0.05,0.0,0.0,0.0,0.0,4946,2019-03-25 16:50:05:253
0.44,0.46,9.98,0.0,0.05,0.0,0.0,0.0,0.0,4951,2019-03-25 16:50:05:258
0.44,0.46,9.98,0.0,0.05,0.0,0.0,0.0,0.0,4957,2019-03-25 16:50:05:264
0.44,0.46,9.98,0.0,0.05,0.0,0.0,0.0,0.0,4961,2019-03-25 16:50:05:268
0.45,0.49,9.96,0.0,0.07,0.01,0.0,0.0,0.0,4966,2019-03-25 16:50:05:273
0.45,0.49,9.96,0.0,0.07,0.01,0.0,0.0,0.0,4971,2019-03-25 16:50:05:278
0.45,0.49,9.96,0.0,0.07,0.01,0.0,0.0,0.0,4975,2019-03-25 16:50:05:282
0.47,0.49,10.0,0.02,0.07,0.04,0.0,0.0,0.0,4981,2019-03-25 16:50:05:288
0.47,0.49,10.0,0.02,0.07,0.04,0.0,0.0,0.0,4986,2019-03-25 16:50:05:293
0.47,0.49,10.0,0.02,0.07,0.04,0.0,0.0,0.0,4991,2019-03-25 16:50:05:298
0.47,0.49,10.0,0.02,0.07,0.04,0.0,0.0,0.0,4996,2019-03-25 16:50:05:303
0.46,0.41,9.94,0.01,0.0,-0.01,0.0,0.0,0.0,5003,2019-03-25 16:50:05:310
0.46,0.41,9.94,0.01,0.0,-0.01,0.0,0.0,0.0,5006,2019-03-25 16:50:05:313
0.46,0.41,9.94,0.01,0.0,-0.01,0.0,0.0,0.0,5011,2019-03-25 16:50:05:318
0.46,0.41,9.94,0.01,0.0,-0.01,0.0,0.0,0.0,5016,2019-03-25 16:50:05:323
0.43,0.43,9.96,-0.01,0.01,0.0,0.0,0.0,0.0,5021,2019-03-25 16:50:05:328
0.43,0.43,9.96,-0.01,0.01,0.0,0.0,0.0,0.0,5026,2019-03-25 16:50:05:333
0.43,0.43,9.96,-0.01,0.01,0.0,0.0,0.0,0.0,5031,2019-03-25 16:50:05:338
0.43,0.43,9.96,-0.01,0.01,0.0,0.0,0.0,0.0,5036,2019-03-25 16:50:05:343
0.35,0.34,9.95,-0.08,-0.07,0.0,0.0,0.0,0.0,5041,2019-03-25 16:50:05:348
0.35,0.34,9.95,-0.08,-0.07,0.0,0.0,0.0,0.0,5046,2019-03-25 16:50:05:353
0.35,0.34,9.95,-0.08,-0.07,0.0,0.0,0.0,0.0,5051,2019-03-25 16:50:05:358
0.35,0.34,9.95,-0.08,-0.07,0.0,0.0,0.0,0.0,5059,2019-03-25 16:50:05:366
0.35,0.34,9.95,-0.08,-0.07,0.0,0.0,0.0,0.0,5061,2019-03-25 16:50:05:368
0.35,0.32,9.97,-0.06,-0.09,0.01,0.0,0.0,0.0,5066,2019-03-25 16:50:05:373
0.35,0.32,9.97,-0.06,-0.09,0.01,0.0,0.0,0.0,5071,2019-03-25 16:50:05:378
0.35,0.32,9.97,-0.06,-0.09,0.01,0.0,0.0,0.0,5076,2019-03-25 16:50:05:383
0.38,0.27,9.95,-0.03,-0.13,0.0,0.0,0.0,0.0,5081,2019-03-25 16:50:05:388
0.38,0.27,9.95,-0.03,-0.13,0.0,0.0,0.0,0.0,5086,2019-03-25 16:50:05:393
0.38,0.27,9.95,-0.03,-0.13,0.0,0.0,0.0,0.0,5091,2019-03-25 16:50:05:398
0.38,0.27,9.95,-0.03,-0.13,0.0,0.0,0.0,0.0,5096,2019-03-25 16:50:05:403
0.4,0.29,9.96,-0.02,-0.1,0.0,0.0,0.0,0.0,5101,2019-03-25 16:50:05:408
0.4,0.29,9.96,-0.02,-0.1,0.0,0.0,0.0,0.0,5106,2019-03-25 16:50:05:413
0.4,0.29,9.96,-0.02,-0.1,0.0,0.0,0.0,0.0,5111,2019-03-25 16:50:05:418
0.4,0.29,9.96,-0.02,-0.1,0.0,0.0,0.0,0.0,5116,2019-03-25 16:50:05:423
0.4,0.29,9.96,-0.02,-0.1,0.0,0.0,0.0,0.0,5121,2019-03-25 16:50:05:428
0.39,0.38,9.99,-0.02,0.0,0.03,0.0,0.0,0.01,5128,2019-03-25 16:50:05:435
0.39,0.38,9.99,-0.02,0.0,0.03,0.0,0.0,0.01,5132,2019-03-25 16:50:05:439
0.39,0.38,9.99,-0.02,0.0,0.03,0.0,0.0,0.01,5136,2019-03-25 16:50:05:443
0.39,0.38,9.99,-0.02,0.0,0.03,0.0,0.0,0.01,5141,2019-03-25 16:50:05:448
0.39,0.38,9.99,0.03,0.09,0.0,0.0,0.0,0.01,5146,2019-03-25 16:50:05:453
0.39,0.38,9.99,0.03,0.09,0.0,0.0,0.0,0.01,5152,2019-03-25 16:50:05:459
0.39,0.38,9.99,0.03,0.09,0.0,0.0,0.0,0.01,5156,2019-03-25 16:50:05:463
0.39,0.38,9.99,0.03,0.09,0.0,0.0,0.0,0.01,5161,2019-03-25 16:50:05:468
0.39,0.38,9.99,0.03,0.09,0.0,0.0,0.0,0.01,5166,2019-03-25 16:50:05:473
0.42,0.49,9.94,0.0,0.1,-0.01,0.0,0.0,0.0,5171,2019-03-25 16:50:05:478
0.42,0.49,9.94,0.0,0.1,-0.01,0.0,0.0,0.0,5178,2019-03-25 16:50:05:485
0.51,0.49,9.95,0.0,0.1,-0.01,0.0,0.0,0.0,5181,2019-03-25 16:50:05:488
0.51,0.49,9.95,0.0,0.1,-0.01,0.0,0.0,0.0,5186,2019-03-25 16:50:05:493
0.51,0.49,9.95,0.0,0.1,-0.01,0.0,0.0,0.0,5191,2019-03-25 16:50:05:498
0.51,0.49,9.95,0.0,0.1,-0.01,0.0,0.0,0.0,5196,2019-03-25 16:50:05:503
0.47,0.43,9.93,0.05,0.04,-0.01,0.0,0.0,0.0,5201,2019-03-25 16:50:05:508
0.47,0.43,9.93,0.05,0.04,-0.01,0.0,0.0,0.0,5207,2019-03-25 16:50:05:514
0.47,0.43,9.93,0.05,0.04,-0.01,0.0,0.0,0.0,5211,2019-03-25 16:50:05:518
0.47,0.43,9.93,0.05,0.04,-0.01,0.0,0.0,0.0,5216,2019-03-25 16:50:05:523
0.47,0.43,9.93,0.05,0.04,-0.01,0.0,0.0,0.0,5221,2019-03-25 16:50:05:528
0.47,0.43,9.93,0.05,0.04,-0.01,0.0,0.0,0.0,5225,2019-03-25 16:50:05:532
0.44,0.38,9.95,0.02,0.0,0.0,0.0,0.0,0.0,5231,2019-03-25 16:50:05:538
0.44,0.38,9.95,0.02,0.0,0.0,0.0,0.0,0.0,5237,2019-03-25 16:50:05:544
0.44,0.38,9.95,0.02,0.0,0.0,0.0,0.0,0.0,5241,2019-03-25 16:50:05:548
0.44,0.38,9.95,0.02,0.0,0.0,0.0,0.0,0.0,5246,2019-03-25 16:50:05:553
0.44,0.38,9.95,0.02,0.0,0.0,0.0,0.0,0.0,5251,2019-03-25 16:50:05:558
0.44,0.38,9.95,0.02,0.0,0.0,0.0,0.0,0.0,5256,2019-03-25 16:50:05:563
0.42,0.33,9.96,0.0,-0.05,0.01,0.0,0.0,0.0,5261,2019-03-25 16:50:05:568
0.42,0.33,9.96,0.0,-0.05,0.01,0.0,0.0,0.0,5265,2019-03-25 16:50:05:572
0.42,0.33,9.96,0.0,-0.05,0.01,0.0,0.0,0.0,5272,2019-03-25 16:50:05:579
0.42,0.33,9.96,0.0,-0.05,0.01,0.0,0.0,0.0,5277,2019-03-25 16:50:05:584
0.42,0.42,9.98,-0.01,0.02,0.02,0.0,0.0,0.0,5281,2019-03-25 16:50:05:588
0.42,0.42,9.98,-0.01,0.02,0.02,0.0,0.0,0.0,5286,2019-03-25 16:50:05:593
0.42,0.42,9.98,-0.01,0.02,0.02,0.0,0.0,0.0,5291,2019-03-25 16:50:05:598
0.42,0.42,9.98,-0.01,0.02,0.02,0.0,0.0,0.0,5296,2019-03-25 16:50:05:603
0.39,0.41,9.94,-0.04,0.0,-0.01,0.0,0.0,0.0,5301,2019-03-25 16:50:05:608
0.39,0.41,9.94,-0.04,0.0,-0.01,0.0,0.0,0.0,5306,2019-03-25 16:50:05:613
0.39,0.41,9.94,-0.04,0.0,-0.01,0.0,0.0,0.0,5311,2019-03-25 16:50:05:618
0.39,0.41,9.94,-0.04,0.0,-0.01,0.0,0.0,0.0,5316,2019-03-25 16:50:05:623
0.39,0.41,9.94,-0.04,0.0,-0.01,0.0,0.0,0.0,5321,2019-03-25 16:50:05:628
0.39,0.41,9.94,-0.04,0.0,-0.01,0.0,0.0,0.0,5326,2019-03-25 16:50:05:633
0.43,0.41,9.99,0.0,0.0,0.04,0.0,0.0,0.0,5331,2019-03-25 16:50:05:638
0.43,0.41,9.99,0.0,0.0,0.04,0.0,0.0,0.0,5336,2019-03-25 16:50:05:643
0.43,0.41,9.99,0.0,0.0,0.04,0.0,0.0,0.0,5341,2019-03-25 16:50:05:648
0.43,0.41,9.99,0.0,0.0,0.04,0.0,0.0,0.0,5346,2019-03-25 16:50:05:653
0.43,0.41,9.99,0.0,0.0,0.04,0.0,0.0,0.0,5351,2019-03-25 16:50:05:658
0.43,0.41,9.99,0.0,0.0,0.04,0.0,0.0,0.0,5357,2019-03-25 16:50:05:664
0.43,0.41,9.99,0.0,0.0,0.04,0.0,0.0,0.0,5361,2019-03-25 16:50:05:668
0.43,0.41,9.99,0.0,0.0,0.04,0.0,0.0,0.0,5366,2019-03-25 16:50:05:673
0.46,0.49,10.0,0.01,0.07,0.04,0.0,0.0,0.0,5371,2019-03-25 16:50:05:678
0.46,0.49,10.0,0.01,0.07,0.04,0.0,0.0,0.0,5376,2019-03-25 16:50:05:683
0.38,0.42,9.88,-0.05,0.0,-0.06,0.0,0.0,0.0,5381,2019-03-25 16:50:05:688
0.38,0.42,9.88,-0.05,0.0,-0.06,0.0,0.0,0.0,5386,2019-03-25 16:50:05:693
0.38,0.42,9.88,-0.05,0.0,-0.06,0.0,0.0,0.0,5391,2019-03-25 16:50:05:698
0.38,0.42,9.88,-0.05,0.0,-0.06,0.0,0.0,0.0,5396,2019-03-25 16:50:05:703
0.41,0.39,9.95,-0.02,-0.01,0.0,0.0,0.0,0.0,5401,2019-03-25 16:50:05:708
0.41,0.39,9.95,-0.02,-0.01,0.0,0.0,0.0,0.0,5406,2019-03-25 16:50:05:713
0.41,0.39,9.95,-0.02,-0.01,0.0,0.0,0.0,0.0,5412,2019-03-25 16:50:05:719
0.41,0.39,9.95,-0.02,-0.01,0.0,0.0,0.0,0.0,5415,2019-03-25 16:50:05:722
0.37,0.38,9.96,-0.05,-0.03,0.01,0.0,0.0,0.0,5421,2019-03-25 16:50:05:728
0.37,0.38,9.96,-0.05,-0.03,0.01,0.0,0.0,0.0,5427,2019-03-25 16:50:05:734
0.37,0.38,9.96,-0.05,-0.03,0.01,0.0,0.0,0.0,5431,2019-03-25 16:50:05:738
0.37,0.38,9.96,-0.05,-0.03,0.01,0.0,0.0,0.0,5436,2019-03-25 16:50:05:743
0.37,0.38,9.96,-0.05,-0.03,0.01,0.0,0.0,0.0,5441,2019-03-25 16:50:05:748
0.37,0.38,9.96,-0.05,-0.03,0.01,0.0,0.0,0.0,5446,2019-03-25 16:50:05:753
0.53,0.37,9.91,0.09,-0.04,-0.03,0.0,0.0,0.0,5451,2019-03-25 16:50:05:758
0.53,0.37,9.91,0.09,-0.04,-0.03,0.0,0.0,0.0,5456,2019-03-25 16:50:05:763
0.51,0.38,9.95,0.06,-0.03,0.01,0.0,0.0,-0.01,5461,2019-03-25 16:50:05:768
0.51,0.38,9.95,0.06,-0.03,0.01,0.0,0.0,-0.01,5466,2019-03-25 16:50:05:773
0.51,0.38,9.95,0.06,-0.03,0.01,0.0,0.0,-0.01,5471,2019-03-25 16:50:05:778
0.51,0.38,9.95,0.06,-0.03,0.01,0.0,0.0,-0.01,5476,2019-03-25 16:50:05:783
0.57,0.37,9.93,0.11,-0.04,-0.01,0.0,0.0,-0.02,5481,2019-03-25 16:50:05:788
0.57,0.37,9.93,0.11,-0.04,-0.01,0.0,0.0,-0.02,5486,2019-03-25 16:50:05:793
0.57,0.37,9.93,0.11,-0.04,-0.01,0.0,0.0,-0.02,5491,2019-03-25 16:50:05:798
0.57,0.37,9.93,0.11,-0.04,-0.01,0.0,0.0,-0.02,5496,2019-03-25 16:50:05:803
0.42,0.35,10.01,-0.04,-0.05,0.05,0.0,0.0,-0.02,5501,2019-03-25 16:50:05:808
0.42,0.35,10.01,-0.04,-0.05,0.05,0.0,0.0,-0.02,5506,2019-03-25 16:50:05:813
0.42,0.35,10.01,-0.04,-0.05,0.05,0.0,0.0,-0.02,5512,2019-03-25 16:50:05:819
0.42,0.35,10.01,-0.04,-0.05,0.05,0.0,0.0,-0.02,5516,2019-03-25 16:50:05:823
0.42,0.35,10.01,-0.04,-0.05,0.05,0.0,0.0,-0.02,5521,2019-03-25 16:50:05:828
0.42,0.35,10.01,-0.04,-0.05,0.05,0.0,0.0,-0.02,5525,2019-03-25 16:50:05:832
0.4,0.3,9.91,-0.06,-0.1,-0.04,0.0,0.0,-0.02,5531,2019-03-25 16:50:05:838
0.4,0.3,9.91,-0.06,-0.1,-0.04,0.0,0.0,-0.02,5536,2019-03-25 16:50:05:843
0.4,0.3,9.91,-0.06,-0.1,-0.04,0.0,0.0,-0.02,5541,2019-03-25 16:50:05:848
0.44,0.37,9.99,0.0,-0.01,0.03,0.0,0.0,-0.02,5546,2019-03-25 16:50:05:853
0.44,0.37,9.99,0.0,-0.01,0.03,0.0,0.0,-0.02,5553,2019-03-25 16:50:05:860
0.44,0.37,9.99,0.0,-0.01,0.03,0.0,0.0,-0.02,5556,2019-03-25 16:50:05:863
0.44,0.37,9.99,0.0,-0.01,0.03,0.0,0.0,-0.02,5561,2019-03-25 16:50:05:868
0.41,0.44,9.93,-0.05,0.04,-0.03,0.0,0.0,-0.01,5566,2019-03-25 16:50:05:873
0.41,0.44,9.93,-0.05,0.04,-0.03,0.0,0.0,-0.01,5571,2019-03-25 16:50:05:878
0.41,0.44,9.93,-0.05,0.04,-0.03,0.0,0.0,-0.01,5576,2019-03-25 16:50:05:883
0.37,0.51,9.96,-0.07,0.12,0.0,0.0,0.0,-0.01,5581,2019-03-25 16:50:05:888
0.37,0.51,9.96,-0.07,0.12,0.0,0.0,0.0,-0.01,5587,2019-03-25 16:50:05:894
0.37,0.51,9.96,-0.07,0.12,0.0,0.0,0.0,-0.01,5592,2019-03-25 16:50:05:899
0.45,0.55,9.95,-0.07,0.12,0.0,0.0,0.0,-0.01,5597,2019-03-25 16:50:05:904
0.45,0.55,9.95,0.0,0.15,0.0,0.0,0.0,-0.01,5601,2019-03-25 16:50:05:908
0.45,0.55,9.95,0.0,0.15,0.0,0.0,0.0,-0.01,5606,2019-03-25 16:50:05:913
0.45,0.55,9.95,0.0,0.15,0.0,0.0,0.0,-0.01,5611,2019-03-25 16:50:05:918
0.42,0.46,9.98,0.0,0.15,0.0,0.0,0.0,-0.01,5616,2019-03-25 16:50:05:923
0.42,0.46,9.98,-0.02,0.05,0.02,0.0,0.0,0.0,5622,2019-03-25 16:50:05:929
0.42,0.46,9.98,-0.02,0.05,0.02,0.0,0.0,0.0,5625,2019-03-25 16:50:05:932
0.42,0.46,9.98,-0.02,0.05,0.02,0.0,0.0,0.0,5632,2019-03-25 16:50:05:939
0.42,0.46,9.98,-0.02,0.05,0.02,0.0,0.0,0.0,5635,2019-03-25 16:50:05:942
0.42,0.46,9.98,-0.02,0.05,0.02,0.0,0.0,0.0,5642,2019-03-25 16:50:05:949
0.42,0.46,9.98,-0.02,0.05,0.02,0.0,0.0,0.0,5646,2019-03-25 16:50:05:953
0.44,0.38,9.93,0.0,-0.03,-0.02,0.0,0.0,0.0,5651,2019-03-25 16:50:05:958
0.44,0.38,9.93,0.0,-0.03,-0.02,0.0,0.0,0.0,5656,2019-03-25 16:50:05:963
0.44,0.43,9.96,0.0,0.0,0.0,0.0,0.0,0.0,5661,2019-03-25 16:50:05:968
0.44,0.43,9.96,0.0,0.0,0.0,0.0,0.0,0.0,5667,2019-03-25 16:50:05:974
0.44,0.43,9.96,0.0,0.0,0.0,0.0,0.0,0.0,5671,2019-03-25 16:50:05:978
0.44,0.43,9.96,0.0,0.0,0.0,0.0,0.0,0.0,5676,2019-03-25 16:50:05:983
0.44,0.43,9.96,0.0,0.0,0.0,0.0,0.0,0.0,5681,2019-03-25 16:50:05:988
0.48,0.38,9.94,0.05,-0.03,-0.02,0.0,0.0,0.0,5686,2019-03-25 16:50:05:993
0.48,0.38,9.94,0.05,-0.03,-0.02,0.0,0.0,0.0,5691,2019-03-25 16:50:05:998
0.48,0.38,9.94,0.05,-0.03,-0.02,0.0,0.0,0.0,5696,2019-03-25 16:50:06:003
0.43,0.29,9.91,0.0,-0.11,-0.04,0.0,0.0,0.0,5701,2019-03-25 16:50:06:008
0.43,0.29,9.91,0.0,-0.11,-0.04,0.0,0.0,0.0,5706,2019-03-25 16:50:06:013
0.43,0.29,9.91,0.0,-0.11,-0.04,0.0,0.0,0.0,5711,2019-03-25 16:50:06:018
0.43,0.29,9.91,0.0,-0.11,-0.04,0.0,0.0,0.0,5716,2019-03-25 16:50:06:023
0.44,0.3,9.98,0.01,-0.1,0.02,0.0,0.0,0.01,5720,2019-03-25 16:50:06:027
0.44,0.3,9.98,0.01,-0.1,0.02,0.0,0.0,0.01,5726,2019-03-25 16:50:06:033
0.44,0.3,9.98,0.01,-0.1,0.02,0.0,0.0,0.01,5731,2019-03-25 16:50:06:038
0.44,0.3,9.98,0.01,-0.1,0.02,0.0,0.0,0.01,5736,2019-03-25 16:50:06:043
0.44,0.3,9.98,0.01,-0.1,0.02,0.0,0.0,0.01,5741,2019-03-25 16:50:06:048
0.44,0.3,9.98,0.01,-0.1,0.02,0.0,0.0,0.01,5746,2019-03-25 16:50:06:053
0.43,0.28,9.97,0.0,-0.11,0.01,0.0,0.0,0.01,5751,2019-03-25 16:50:06:058
0.43,0.28,9.97,0.0,-0.11,0.01,0.0,0.0,0.01,5756,2019-03-25 16:50:06:063
0.43,0.28,9.97,0.0,-0.11,0.01,0.0,0.0,0.01,5762,2019-03-25 16:50:06:069
0.43,0.28,9.97,0.0,-0.11,0.01,0.0,0.0,0.01,5766,2019-03-25 16:50:06:073
0.44,0.28,9.95,0.0,-0.1,0.0,0.0,0.0,0.01,5771,2019-03-25 16:50:06:078
0.44,0.28,9.95,0.0,-0.1,0.0,0.0,0.0,0.01,5776,2019-03-25 16:50:06:083
0.44,0.28,9.95,0.0,-0.1,0.0,0.0,0.0,0.01,5780,2019-03-25 16:50:06:087
0.49,0.25,9.97,0.04,-0.1,0.01,0.0,0.0,0.0,5786,2019-03-25 16:50:06:093
0.49,0.25,9.97,0.04,-0.1,0.01,0.0,0.0,0.0,5791,2019-03-25 16:50:06:098
0.49,0.25,9.97,0.04,-0.1,0.01,0.0,0.0,0.0,5797,2019-03-25 16:50:06:104
0.49,0.25,9.97,0.04,-0.1,0.01,0.0,0.0,0.0,5801,2019-03-25 16:50:06:108
0.49,0.25,9.97,0.04,-0.1,0.01,0.0,0.0,0.0,5806,2019-03-25 16:50:06:113
0.49,0.25,9.97,0.04,-0.1,0.01,0.0,0.0,0.0,5811,2019-03-25 16:50:06:118
0.41,0.29,9.94,-0.03,-0.04,-0.01,0.0,0.0,0.0,5815,2019-03-25 16:50:06:122
0.41,0.29,9.94,-0.03,-0.04,-0.01,0.0,0.0,0.0,5820,2019-03-25 16:50:06:127
0.41,0.29,9.94,-0.03,-0.04,-0.01,0.0,0.0,0.0,5826,2019-03-25 16:50:06:133
0.39,0.32,10.0,-0.05,0.0,0.04,0.0,0.0,0.0,5831,2019-03-25 16:50:06:138
0.39,0.32,10.0,-0.05,0.0,0.04,0.0,0.0,0.0,5836,2019-03-25 16:50:06:143
0.39,0.32,10.0,-0.05,0.0,0.04,0.0,0.0,0.0,5841,2019-03-25 16:50:06:148
0.39,0.36,9.99,-0.05,0.0,0.04,0.0,0.0,0.0,5847,2019-03-25 16:50:06:154
0.39,0.36,9.99,-0.04,0.04,0.03,0.0,0.0,0.0,5851,2019-03-25 16:50:06:158
0.39,0.36,9.99,-0.04,0.04,0.03,0.0,0.0,0.0,5856,2019-03-25 16:50:06:163
0.39,0.36,9.99,-0.04,0.04,0.03,0.0,0.0,0.0,5861,2019-03-25 16:50:06:168
0.44,0.35,9.98,0.0,0.03,0.02,0.0,0.0,0.0,5866,2019-03-25 16:50:06:173
0.44,0.35,9.98,0.0,0.03,0.02,0.0,0.0,0.0,5871,2019-03-25 16:50:06:178
0.44,0.35,9.98,0.0,0.03,0.02,0.0,0.0,0.0,5876,2019-03-25 16:50:06:183
0.44,0.35,9.98,0.0,0.03,0.02,0.0,0.0,0.0,5881,2019-03-25 16:50:06:188
0.44,0.35,9.98,0.0,0.03,0.02,0.0,0.0,0.0,5886,2019-03-25 16:50:06:193
0.4,0.38,9.95,-0.02,0.06,0.0,0.0,0.0,0.0,5891,2019-03-25 16:50:06:198
0.4,0.38,9.95,-0.02,0.06,0.0,0.0,0.0,0.0,5896,2019-03-25 16:50:06:203
0.4,0.38,9.95,-0.02,0.06,0.0,0.0,0.0,0.0,5901,2019-03-25 16:50:06:208
0.4,0.38,9.95,-0.02,0.06,0.0,0.0,0.0,0.0,5907,2019-03-25 16:50:06:214
0.4,0.38,9.95,-0.02,0.06,0.0,0.0,0.0,0.0,5911,2019-03-25 16:50:06:218
0.39,0.39,10.0,-0.02,0.07,0.04,0.0,0.0,0.0,5916,2019-03-25 16:50:06:223
0.39,0.39,10.0,-0.02,0.07,0.04,0.0,0.0,0.0,5921,2019-03-25 16:50:06:228
0.39,0.39,10.0,-0.02,0.07,0.04,0.0,0.0,0.0,5926,2019-03-25 16:50:06:233
0.39,0.39,10.0,-0.02,0.07,0.04,0.0,0.0,0.0,5932,2019-03-25 16:50:06:239
0.39,0.39,10.0,-0.02,0.07,0.04,0.0,0.0,0.0,5936,2019-03-25 16:50:06:243
0.37,0.4,9.91,-0.03,0.05,-0.05,0.0,0.0,0.0,5941,2019-03-25 16:50:06:248
0.37,0.4,9.91,-0.03,0.05,-0.05,0.0,0.0,0.0,5946,2019-03-25 16:50:06:253
0.37,0.4,9.91,-0.03,0.05,-0.05,0.0,0.0,0.0,5950,2019-03-25 16:50:06:257
0.37,0.4,9.91,-0.03,0.05,-0.05,0.0,0.0,0.0,5957,2019-03-25 16:50:06:264
0.37,0.4,9.91,-0.03,0.05,-0.05,0.0,0.0,0.0,5962,2019-03-25 16:50:06:269
0.37,0.4,9.91,-0.03,0.05,-0.05,0.0,0.0,0.0,5966,2019-03-25 16:50:06:273
0.4,0.38,9.95,0.0,0.02,0.0,0.0,0.0,0.0,5970,2019-03-25 16:50:06:277
0.4,0.38,9.95,0.0,0.02,0.0,0.0,0.0,0.0,5978,2019-03-25 16:50:06:285
0.37,0.37,9.94,0.0,0.0,0.0,0.0,0.0,0.0,5981,2019-03-25 16:50:06:288
0.37,0.37,9.94,0.0,0.0,0.0,0.0,0.0,0.0,5985,2019-03-25 16:50:06:292
0.37,0.37,9.94,0.0,0.0,0.0,0.0,0.0,0.0,5992,2019-03-25 16:50:06:299
0.37,0.37,9.94,0.0,0.0,0.0,0.0,0.0,0.0,5996,2019-03-25 16:50:06:303
0.38,0.36,9.87,0.0,-0.01,-0.09,0.0,0.0,0.0,6001,2019-03-25 16:50:06:308
0.38,0.36,9.87,0.0,-0.01,-0.09,0.0,0.0,0.0,6006,2019-03-25 16:50:06:313
0.38,0.36,9.87,0.0,-0.01,-0.09,0.0,0.0,0.0,6011,2019-03-25 16:50:06:318
0.38,0.36,9.87,0.0,-0.01,-0.09,0.0,0.0,0.0,6016,2019-03-25 16:50:06:323
0.33,0.38,9.97,-0.04,0.0,0.01,0.0,0.0,0.0,6021,2019-03-25 16:50:06:328
0.33,0.38,9.97,-0.04,0.0,0.01,0.0,0.0,0.0,6026,2019-03-25 16:50:06:333
0.33,0.38,9.97,-0.04,0.0,0.01,0.0,0.0,0.0,6031,2019-03-25 16:50:06:338
0.33,0.38,9.97,-0.04,0.0,0.01,0.0,0.0,0.0,6036,2019-03-25 16:50:06:343
0.34,0.35,9.9,-0.02,-0.02,-0.05,0.0,0.0,0.01,6041,2019-03-25 16:50:06:348
0.34,0.35,9.9,-0.02,-0.02,-0.05,0.0,0.0,0.01,6046,2019-03-25 16:50:06:353
0.34,0.35,9.9,-0.02,-0.02,-0.05,0.0,0.0,0.01,6052,2019-03-25 16:50:06:359
0.34,0.35,9.9,-0.02,-0.02,-0.05,0.0,0.0,0.01,6056,2019-03-25 16:50:06:363
0.41,0.32,9.91,0.04,-0.04,-0.03,0.0,0.0,0.01,6061,2019-03-25 16:50:06:368
0.41,0.32,9.91,0.04,-0.04,-0.03,0.0,0.0,0.01,6066,2019-03-25 16:50:06:373
0.41,0.32,9.91,0.04,-0.04,-0.03,0.0,0.0,0.01,6071,2019-03-25 16:50:06:378
0.41,0.32,9.91,0.04,-0.04,-0.03,0.0,0.0,0.01,6076,2019-03-25 16:50:06:383
0.49,0.31,9.93,0.11,-0.05,-0.01,0.0,0.0,0.02,6081,2019-03-25 16:50:06:388
0.49,0.31,9.93,0.11,-0.05,-0.01,0.0,0.0,0.02,6086,2019-03-25 16:50:06:393
0.49,0.31,9.93,0.11,-0.05,-0.01,0.0,0.0,0.02,6091,2019-03-25 16:50:06:398
0.49,0.31,9.93,0.11,-0.05,-0.01,0.0,0.0,0.02,6096,2019-03-25 16:50:06:403
0.49,0.31,9.93,0.11,-0.05,-0.01,0.0,0.0,0.02,6104,2019-03-25 16:50:06:411
0.49,0.31,9.93,0.11,-0.05,-0.01,0.0,0.0,0.02,6106,2019-03-25 16:50:06:413
0.42,0.29,9.95,0.11,-0.05,-0.01,0.0,0.0,0.02,6111,2019-03-25 16:50:06:418
0.42,0.29,9.95,0.03,-0.06,0.0,0.0,0.0,0.02,6116,2019-03-25 16:50:06:423
0.42,0.29,9.95,0.03,-0.06,0.0,0.0,0.0,0.02,6121,2019-03-25 16:50:06:428
0.42,0.29,9.95,0.03,-0.06,0.0,0.0,0.0,0.02,6127,2019-03-25 16:50:06:434
0.42,0.29,9.9,0.03,-0.06,0.0,0.0,0.0,0.02,6131,2019-03-25 16:50:06:438
0.39,0.27,9.9,0.0,-0.07,-0.03,0.0,0.0,0.01,6136,2019-03-25 16:50:06:443
0.39,0.27,9.9,0.0,-0.07,-0.03,0.0,0.0,0.01,6142,2019-03-25 16:50:06:449
0.39,0.27,9.9,0.0,-0.07,-0.03,0.0,0.0,0.01,6146,2019-03-25 16:50:06:453
0.47,0.36,10.0,0.07,0.02,0.06,0.0,0.0,0.01,6151,2019-03-25 16:50:06:458
0.47,0.36,10.0,0.07,0.02,0.06,0.0,0.0,0.01,6156,2019-03-25 16:50:06:463
0.47,0.36,10.0,0.07,0.02,0.06,0.0,0.0,0.01,6161,2019-03-25 16:50:06:468
0.41,0.38,9.97,0.0,0.03,0.03,0.0,0.0,0.0,6166,2019-03-25 16:50:06:473
0.41,0.38,9.97,0.0,0.03,0.03,0.0,0.0,0.0,6171,2019-03-25 16:50:06:478
0.41,0.38,9.97,0.0,0.03,0.03,0.0,0.0,0.0,6177,2019-03-25 16:50:06:484
0.41,0.38,9.97,0.0,0.03,0.03,0.0,0.0,0.0,6181,2019-03-25 16:50:06:488
0.41,0.38,9.97,0.0,0.03,0.03,0.0,0.0,0.0,6186,2019-03-25 16:50:06:493
0.4,0.33,10.01,0.0,0.0,0.06,0.0,0.0,0.0,6191,2019-03-25 16:50:06:498
0.4,0.33,10.01,0.0,0.0,0.06,0.0,0.0,0.0,6198,2019-03-25 16:50:06:505
0.49,0.51,9.99,0.0,0.0,0.06,0.0,0.0,0.0,6201,2019-03-25 16:50:06:508
0.49,0.51,9.99,0.0,0.0,0.06,0.0,0.0,0.0,6206,2019-03-25 16:50:06:513
0.49,0.51,9.99,0.0,0.0,0.06,0.0,0.0,0.0,6211,2019-03-25 16:50:06:518
0.49,0.61,9.91,0.0,0.0,0.06,0.0,0.0,0.0,6216,2019-03-25 16:50:06:523
0.57,0.61,9.91,0.13,0.25,-0.03,0.0,0.0,0.0,6221,2019-03-25 16:50:06:528
0.57,0.61,9.91,0.13,0.25,-0.03,0.0,0.0,0.0,6226,2019-03-25 16:50:06:533
0.57,0.61,9.91,0.13,0.25,-0.03,0.0,0.0,0.0,6232,2019-03-25 16:50:06:539
0.44,0.83,9.82,0.0,0.42,-0.11,0.0,0.0,0.0,6236,2019-03-25 16:50:06:543
0.44,0.83,9.82,0.0,0.42,-0.11,0.0,0.0,0.0,6241,2019-03-25 16:50:06:548
0.44,0.83,9.82,0.0,0.42,-0.11,0.0,0.0,0.0,6246,2019-03-25 16:50:06:553
0.44,0.83,9.82,0.0,0.42,-0.11,0.0,0.0,0.0,6252,2019-03-25 16:50:06:559
0.44,0.83,9.82,0.0,0.42,-0.11,0.0,0.0,0.0,6256,2019-03-25 16:50:06:563
0.44,0.83,9.82,0.0,0.42,-0.11,0.0,0.0,0.0,6261,2019-03-25 16:50:06:568
0.08,0.9,9.82,-0.34,0.44,-0.1,0.0,0.0,-0.02,6266,2019-03-25 16:50:06:573
0.08,0.9,9.82,-0.34,0.44,-0.1,0.0,0.0,-0.02,6273,2019-03-25 16:50:06:580
0.08,0.9,9.82,-0.34,0.44,-0.1,0.0,0.0,-0.02,6275,2019-03-25 16:50:06:582
0.35,0.66,9.87,-0.05,0.16,-0.04,0.0,0.0,-0.03,6282,2019-03-25 16:50:06:589
0.35,0.66,9.87,-0.05,0.16,-0.04,0.0,0.0,-0.03,6286,2019-03-25 16:50:06:593
0.35,0.66,9.87,-0.05,0.16,-0.04,0.0,0.0,-0.03,6291,2019-03-25 16:50:06:598
0.35,0.66,9.87,-0.05,0.16,-0.04,0.0,0.0,-0.03,6296,2019-03-25 16:50:06:603
0.17,0.37,10.08,-0.21,-0.14,0.16,0.0,0.0,-0.02,6301,2019-03-25 16:50:06:608
0.17,0.37,10.08,-0.21,-0.14,0.16,0.0,0.0,-0.02,6305,2019-03-25 16:50:06:612
0.17,0.37,10.08,-0.21,-0.14,0.16,0.0,0.0,-0.02,6311,2019-03-25 16:50:06:618
0.17,0.37,10.08,-0.21,-0.14,0.16,0.0,0.0,-0.02,6318,2019-03-25 16:50:06:625
0.17,0.37,10.08,-0.21,-0.14,0.16,0.0,0.0,-0.02,6321,2019-03-25 16:50:06:628
0.17,0.37,10.08,-0.21,-0.14,0.16,0.0,0.0,-0.02,6326,2019-03-25 16:50:06:633
0.41,0.19,9.96,0.03,-0.31,0.03,0.0,0.0,-0.01,6331,2019-03-25 16:50:06:638
0.41,0.19,9.96,0.03,-0.31,0.03,0.0,0.0,-0.01,6336,2019-03-25 16:50:06:643
0.41,0.19,9.96,0.03,-0.31,0.03,0.0,0.0,-0.01,6342,2019-03-25 16:50:06:649
0.41,0.19,9.96,0.03,-0.31,0.03,0.0,0.0,-0.01,6347,2019-03-25 16:50:06:654
0.41,0.19,9.96,0.03,-0.31,0.03,0.0,0.0,-0.01,6352,2019-03-25 16:50:06:659
0.41,0.19,9.96,0.03,-0.31,0.03,0.0,0.0,-0.01,6357,2019-03-25 16:50:06:664
0.41,0.19,9.96,0.03,-0.31,0.03,0.0,0.0,-0.01,6361,2019-03-25 16:50:06:668
0.58,0.49,10.0,0.18,-0.01,0.07,0.0,0.0,0.0,6366,2019-03-25 16:50:06:673
0.58,0.49,10.0,0.18,-0.01,0.07,0.0,0.0,0.0,6371,2019-03-25 16:50:06:678
0.58,0.49,10.0,0.18,-0.01,0.07,0.0,0.0,0.0,6376,2019-03-25 16:50:06:683
0.58,0.49,10.0,0.18,-0.01,0.07,0.0,0.0,0.0,6381,2019-03-25 16:50:06:688
0.58,0.49,10.0,0.18,-0.01,0.07,0.0,0.0,0.0,6386,2019-03-25 16:50:06:693
0.56,0.56,9.96,0.14,0.03,0.03,0.0,0.0,0.0,6391,2019-03-25 16:50:06:698
0.56,0.56,9.96,0.14,0.03,0.03,0.0,0.0,0.0,6395,2019-03-25 16:50:06:702
0.56,0.56,9.96,0.14,0.03,0.03,0.0,0.0,0.0,6400,2019-03-25 16:50:06:707
0.45,0.55,9.98,0.14,0.03,0.03,0.0,0.0,0.0,6406,2019-03-25 16:50:06:713
0.45,0.55,9.98,0.03,0.0,0.04,0.0,0.0,-0.01,6411,2019-03-25 16:50:06:718
0.45,0.55,9.98,0.03,0.0,0.04,0.0,0.0,-0.01,6416,2019-03-25 16:50:06:723
0.45,0.55,9.98,0.03,0.0,0.04,0.0,0.0,-0.02,6420,2019-03-25 16:50:06:727
0.45,0.55,9.98,0.03,0.0,0.04,0.0,0.0,-0.02,6426,2019-03-25 16:50:06:733
0.45,0.55,9.98,0.03,0.0,0.04,0.0,0.0,-0.02,6431,2019-03-25 16:50:06:738
0.45,0.55,9.98,0.03,0.0,0.04,0.0,0.0,-0.02,6436,2019-03-25 16:50:06:743
0.45,0.55,9.98,0.03,0.0,0.04,0.0,0.0,-0.02,6441,2019-03-25 16:50:06:748
0.45,0.55,9.98,0.03,0.0,0.04,0.0,0.0,-0.02,6446,2019-03-25 16:50:06:753
0.42,0.32,9.95,0.02,-0.16,0.01,0.0,0.0,-0.02,6459,2019-03-25 16:50:06:766
0.42,0.32,9.95,0.02,-0.16,0.01,0.0,0.0,-0.02,6467,2019-03-25 16:50:06:774
0.37,0.24,9.97,-0.04,-0.19,0.01,0.0,0.0,-0.01,6468,2019-03-25 16:50:06:775
0.37,0.24,9.97,-0.04,-0.19,0.01,0.0,0.0,-0.01,6468,2019-03-25 16:50:06:775
0.37,0.24,9.97,-0.04,-0.19,0.01,0.0,0.0,-0.01,6471,2019-03-25 16:50:06:778
0.37,0.24,9.97,-0.04,-0.19,0.01,0.0,0.0,-0.01,6478,2019-03-25 16:50:06:785
0.33,0.25,9.96,-0.09,-0.13,0.0,0.0,0.0,0.0,6481,2019-03-25 16:50:06:788
0.33,0.25,9.96,-0.09,-0.13,0.0,0.0,0.0,0.0,6486,2019-03-25 16:50:06:793
0.33,0.25,9.96,-0.09,-0.13,0.0,0.0,0.0,0.0,6492,2019-03-25 16:50:06:799
0.33,0.25,9.96,-0.09,-0.13,0.0,0.0,0.0,0.0,6497,2019-03-25 16:50:06:804
0.33,0.27,9.96,-0.09,-0.09,0.0,0.0,0.0,0.0,6501,2019-03-25 16:50:06:808
0.33,0.27,9.96,-0.09,-0.09,0.0,0.0,0.0,0.0,6507,2019-03-25 16:50:06:814
0.33,0.27,9.96,-0.09,-0.09,0.0,0.0,0.0,0.0,6511,2019-03-25 16:50:06:818
0.33,0.27,9.96,-0.09,-0.09,0.0,0.0,0.0,0.0,6516,2019-03-25 16:50:06:823
0.33,0.27,9.96,-0.09,-0.09,0.0,0.0,0.0,0.0,6521,2019-03-25 16:50:06:828
0.29,0.33,9.86,-0.09,-0.09,0.0,0.0,0.0,0.0,6526,2019-03-25 16:50:06:833
0.29,0.33,9.86,-0.13,-0.04,-0.09,0.0,0.0,0.01,6531,2019-03-25 16:50:06:838
0.29,0.33,9.86,-0.13,-0.04,-0.09,0.0,0.0,0.01,6536,2019-03-25 16:50:06:843
0.29,0.33,9.86,-0.13,-0.04,-0.09,0.0,0.0,0.01,6542,2019-03-25 16:50:06:849
0.29,0.33,9.86,-0.13,-0.04,-0.09,0.0,0.0,0.01,6546,2019-03-25 16:50:06:853
0.29,0.33,9.86,-0.13,-0.04,-0.09,0.0,0.0,0.01,6551,2019-03-25 16:50:06:858
0.29,0.33,9.86,-0.13,-0.04,-0.09,0.0,0.0,0.01,6556,2019-03-25 16:50:06:863
0.4,0.33,9.94,0.0,-0.04,-0.01,0.0,0.0,0.0,6561,2019-03-25 16:50:06:868
0.4,0.33,9.94,0.0,-0.04,-0.01,0.0,0.0,0.0,6566,2019-03-25 16:50:06:873
0.4,0.33,9.94,0.0,-0.04,-0.01,0.0,0.0,0.0,6571,2019-03-25 16:50:06:878
0.4,0.33,9.94,0.0,-0.04,-0.01,0.0,0.0,0.0,6576,2019-03-25 16:50:06:883
0.41,0.32,9.91,0.02,-0.01,-0.04,0.0,0.0,0.0,6581,2019-03-25 16:50:06:888
0.41,0.32,9.91,0.02,-0.01,-0.04,0.0,0.0,0.0,6587,2019-03-25 16:50:06:894
0.41,0.32,9.91,0.02,-0.01,-0.04,0.0,0.0,0.0,6591,2019-03-25 16:50:06:898
0.41,0.41,9.96,0.02,-0.01,-0.04,0.0,0.0,0.0,6596,2019-03-25 16:50:06:903
0.5,0.41,9.96,0.11,0.08,0.0,0.0,0.0,0.01,6601,2019-03-25 16:50:06:908
0.5,0.41,9.96,0.11,0.08,0.0,0.0,0.0,0.01,6606,2019-03-25 16:50:06:913
0.5,0.41,9.96,0.11,0.08,0.0,0.0,0.0,0.01,6611,2019-03-25 16:50:06:918
0.5,0.41,9.96,0.11,0.08,0.0,0.0,0.0,0.01,6616,2019-03-25 16:50:06:923
0.5,0.41,9.96,0.11,0.08,0.0,0.0,0.0,0.01,6621,2019-03-25 16:50:06:928
0.5,0.41,9.96,0.11,0.08,0.0,0.0,0.0,0.01,6626,2019-03-25 16:50:06:933
0.41,0.38,9.96,0.01,0.06,0.0,0.0,0.0,0.01,6631,2019-03-25 16:50:06:938
0.41,0.38,9.96,0.01,0.06,0.0,0.0,0.0,0.01,6637,2019-03-25 16:50:06:944
0.41,0.38,9.96,0.01,0.06,0.0,0.0,0.0,0.01,6640,2019-03-25 16:50:06:947
0.41,0.38,9.96,0.01,0.06,0.0,0.0,0.0,0.01,6646,2019-03-25 16:50:06:953
0.41,0.38,9.96,0.01,0.06,0.0,0.0,0.0,0.01,6651,2019-03-25 16:50:06:958
0.41,0.38,9.96,0.01,0.06,0.0,0.0,0.0,0.01,6656,2019-03-25 16:50:06:963
0.55,0.38,9.91,0.01,0.06,0.0,0.0,0.0,0.01,6661,2019-03-25 16:50:06:968
0.55,0.38,9.91,0.16,0.05,-0.04,0.0,0.0,0.01,6666,2019-03-25 16:50:06:973
0.55,0.38,9.91,0.16,0.05,-0.04,0.0,0.0,0.01,6671,2019-03-25 16:50:06:978
0.55,0.38,9.91,0.16,0.05,-0.04,0.0,0.0,0.01,6676,2019-03-25 16:50:06:983
0.47,0.37,10.01,0.06,0.03,0.05,0.0,0.0,0.01,6681,2019-03-25 16:50:06:988
0.47,0.37,10.01,0.06,0.03,0.05,0.0,0.0,0.01,6686,2019-03-25 16:50:06:993
0.47,0.37,10.01,0.06,0.03,0.05,0.0,0.0,0.01,6691,2019-03-25 16:50:06:998
0.48,0.36,9.95,0.06,0.03,0.05,0.0,0.0,0.0,6696,2019-03-25 16:50:07:003
0.48,0.36,9.95,0.05,0.01,0.0,0.0,0.0,0.0,6701,2019-03-25 16:50:07:008
0.48,0.36,9.95,0.05,0.01,0.0,0.0,0.0,0.0,6706,2019-03-25 16:50:07:013
0.5,0.41,9.92,0.05,0.01,0.0,0.0,0.0,0.01,6711,2019-03-25 16:50:07:018
0.5,0.41,9.92,0.01,0.0,-0.02,0.0,0.0,0.01,6716,2019-03-25 16:50:07:023
0.5,0.41,9.92,0.01,0.0,-0.02,0.0,0.0,0.01,6721,2019-03-25 16:50:07:028
0.5,0.41,9.92,0.01,0.0,-0.02,0.0,0.0,0.01,6727,2019-03-25 16:50:07:034
0.5,0.41,9.92,0.01,0.0,-0.02,0.0,0.0,0.01,6731,2019-03-25 16:50:07:038
0.5,0.41,9.92,0.01,0.0,-0.02,0.0,0.0,0.01,6736,2019-03-25 16:50:07:043
0.5,0.37,9.93,0.05,0.0,-0.02,0.0,0.0,0.0,6742,2019-03-25 16:50:07:049
0.5,0.37,9.93,0.05,0.0,-0.02,0.0,0.0,0.0,6747,2019-03-25 16:50:07:054
0.5,0.37,9.93,0.05,0.0,-0.02,0.0,0.0,0.0,6751,2019-03-25 16:50:07:058
0.5,0.37,9.93,0.05,0.0,-0.02,0.0,0.0,0.0,6757,2019-03-25 16:50:07:064
0.5,0.37,9.93,0.05,0.0,-0.02,0.0,0.0,0.0,6760,2019-03-25 16:50:07:067
0.59,0.44,9.92,0.12,0.06,-0.03,0.0,0.0,0.0,6767,2019-03-25 16:50:07:074
0.59,0.44,9.92,0.12,0.06,-0.03,0.0,0.0,0.0,6772,2019-03-25 16:50:07:079
0.59,0.44,9.92,0.12,0.06,-0.03,0.0,0.0,0.0,6776,2019-03-25 16:50:07:083
0.57,0.41,9.96,0.12,0.06,-0.03,0.0,0.0,0.0,6781,2019-03-25 16:50:07:088
0.57,0.41,9.96,0.08,0.02,0.0,0.0,0.0,0.0,6786,2019-03-25 16:50:07:093
0.57,0.41,9.96,0.08,0.02,0.0,0.0,0.0,0.0,6791,2019-03-25 16:50:07:098
0.57,0.41,9.96,0.08,0.02,0.0,0.0,0.0,0.0,6796,2019-03-25 16:50:07:103
0.59,0.42,9.94,0.1,0.02,-0.01,0.0,0.0,0.0,6801,2019-03-25 16:50:07:108
0.59,0.42,9.94,0.1,0.02,-0.01,0.0,0.0,0.0,6806,2019-03-25 16:50:07:113
0.59,0.42,9.94,0.1,0.02,-0.01,0.0,0.0,0.0,6811,2019-03-25 16:50:07:118
0.59,0.42,9.94,0.1,0.02,-0.01,0.0,0.0,0.0,6816,2019-03-25 16:50:07:123
0.59,0.42,9.94,0.1,0.02,-0.01,0.0,0.0,0.0,6821,2019-03-25 16:50:07:128
0.59,0.42,9.94,0.1,0.02,-0.01,0.0,0.0,0.0,6826,2019-03-25 16:50:07:133
0.49,0.38,9.97,0.0,0.0,0.01,0.0,0.0,0.0,6831,2019-03-25 16:50:07:138
0.49,0.38,9.97,0.0,0.0,0.01,0.0,0.0,0.0,6836,2019-03-25 16:50:07:143
0.49,0.38,9.97,0.0,0.0,0.01,0.0,0.0,0.0,6841,2019-03-25 16:50:07:148
0.49,0.38,9.97,0.0,0.0,0.01,0.0,0.0,0.0,6846,2019-03-25 16:50:07:153
0.44,0.34,9.95,-0.06,-0.04,0.0,0.0,0.0,0.0,6851,2019-03-25 16:50:07:158
0.44,0.34,9.95,-0.06,-0.04,0.0,0.0,0.0,0.0,6855,2019-03-25 16:50:07:162
0.44,0.34,9.95,-0.06,-0.04,0.0,0.0,0.0,0.0,6861,2019-03-25 16:50:07:168
0.43,0.33,9.96,-0.08,-0.05,0.0,0.0,0.0,0.0,6866,2019-03-25 16:50:07:173
0.43,0.33,9.96,-0.08,-0.05,0.0,0.0,0.0,0.0,6871,2019-03-25 16:50:07:178
0.43,0.33,9.96,-0.08,-0.05,0.0,0.0,0.0,0.0,6876,2019-03-25 16:50:07:183
0.43,0.33,9.94,-0.07,-0.04,-0.01,0.0,0.0,0.0,6881,2019-03-25 16:50:07:188
0.43,0.33,9.94,-0.07,-0.04,-0.01,0.0,0.0,0.0,6886,2019-03-25 16:50:07:193
0.43,0.33,9.94,-0.07,-0.04,-0.01,0.0,0.0,0.0,6891,2019-03-25 16:50:07:198
0.43,0.33,9.94,-0.07,-0.04,-0.01,0.0,0.0,0.0,6897,2019-03-25 16:50:07:204
0.44,0.35,9.88,-0.05,-0.02,-0.07,0.0,0.0,0.0,6901,2019-03-25 16:50:07:208
0.44,0.35,9.88,-0.05,-0.02,-0.07,0.0,0.0,0.0,6906,2019-03-25 16:50:07:213
0.44,0.35,9.88,-0.05,-0.02,-0.07,0.0,0.0,0.0,6911,2019-03-25 16:50:07:218
0.37,0.34,9.93,-0.11,-0.02,-0.01,0.0,0.0,0.0,6919,2019-03-25 16:50:07:226
0.37,0.34,9.93,-0.11,-0.02,-0.01,0.0,0.0,0.0,6921,2019-03-25 16:50:07:228
0.37,0.34,9.93,-0.11,-0.02,-0.01,0.0,0.0,0.0,6926,2019-03-25 16:50:07:233
0.33,0.35,9.93,-0.13,-0.01,-0.02,0.0,0.0,0.0,6931,2019-03-25 16:50:07:238
0.33,0.35,9.93,-0.13,-0.01,-0.02,0.0,0.0,0.0,6936,2019-03-25 16:50:07:243
0.33,0.35,9.93,-0.13,-0.01,-0.02,0.0,0.0,0.0,6941,2019-03-25 16:50:07:248
0.33,0.35,9.93,-0.13,-0.01,-0.02,0.0,0.0,0.0,6946,2019-03-25 16:50:07:253
0.33,0.35,9.93,-0.13,-0.01,-0.02,0.0,0.0,0.0,6951,2019-03-25 16:50:07:258
0.33,0.35,9.93,-0.13,-0.01,-0.02,0.0,0.0,0.0,6956,2019-03-25 16:50:07:263
0.33,0.35,9.93,-0.13,-0.01,-0.02,0.0,0.0,0.0,6961,2019-03-25 16:50:07:268
0.35,0.36,9.94,-0.09,0.0,-0.01,0.0,0.0,0.0,6966,2019-03-25 16:50:07:273
0.35,0.36,9.94,-0.09,0.0,-0.01,0.0,0.0,0.0,6971,2019-03-25 16:50:07:278
0.35,0.36,9.94,-0.09,0.0,-0.01,0.0,0.0,0.0,6976,2019-03-25 16:50:07:283
0.39,0.42,9.96,-0.03,0.06,0.0,0.0,0.0,0.0,6981,2019-03-25 16:50:07:288
0.39,0.42,9.96,-0.03,0.06,0.0,0.0,0.0,0.0,6987,2019-03-25 16:50:07:294
0.39,0.42,9.96,-0.03,0.06,0.0,0.0,0.0,0.0,6992,2019-03-25 16:50:07:299
0.45,0.46,10.01,0.03,0.09,0.06,0.0,0.0,0.0,6997,2019-03-25 16:50:07:304
0.45,0.46,10.01,0.03,0.09,0.06,0.0,0.0,0.0,7001,2019-03-25 16:50:07:308
0.45,0.46,10.01,0.03,0.09,0.06,0.0,0.0,0.0,7009,2019-03-25 16:50:07:316
0.45,0.46,10.01,0.03,0.09,0.06,0.0,0.0,0.0,7011,2019-03-25 16:50:07:318
0.49,0.47,10.01,0.08,0.09,0.05,0.0,0.0,0.0,7016,2019-03-25 16:50:07:323
0.49,0.47,10.01,0.08,0.09,0.05,0.0,0.0,0.0,7020,2019-03-25 16:50:07:327
0.44,0.46,9.95,0.03,0.07,0.0,0.0,0.0,0.0,7027,2019-03-25 16:50:07:334
0.44,0.46,9.95,0.03,0.07,0.0,0.0,0.0,0.0,7032,2019-03-25 16:50:07:339
0.44,0.46,9.95,0.03,0.07,0.0,0.0,0.0,0.0,7036,2019-03-25 16:50:07:343
0.44,0.46,9.95,0.03,0.07,0.0,0.0,0.0,0.0,7042,2019-03-25 16:50:07:349
0.44,0.46,9.95,0.03,0.07,0.0,0.0,0.0,0.0,7046,2019-03-25 16:50:07:353
0.44,0.46,9.95,0.03,0.07,0.0,0.0,0.0,0.0,7051,2019-03-25 16:50:07:358
0.44,0.46,9.95,0.03,0.07,0.0,0.0,0.0,0.0,7056,2019-03-25 16:50:07:363
0.44,0.46,9.95,0.03,0.07,0.0,0.0,0.0,0.0,7061,2019-03-25 16:50:07:368
0.44,0.43,9.95,0.02,0.03,0.0,0.0,0.0,0.0,7066,2019-03-25 16:50:07:373
0.44,0.43,9.95,0.02,0.03,0.0,0.0,0.0,0.0,7070,2019-03-25 16:50:07:377
0.44,0.43,9.95,0.02,0.03,0.0,0.0,0.0,0.0,7076,2019-03-25 16:50:07:383
0.44,0.43,9.95,0.02,0.03,0.0,0.0,0.0,0.0,7081,2019-03-25 16:50:07:388
0.42,0.41,9.92,0.01,0.01,-0.02,0.0,0.0,0.0,7087,2019-03-25 16:50:07:394
0.42,0.41,9.92,0.01,0.01,-0.02,0.0,0.0,0.0,7091,2019-03-25 16:50:07:398
0.42,0.41,9.92,0.01,0.01,-0.02,0.0,0.0,0.0,7095,2019-03-25 16:50:07:402
0.42,0.41,9.92,0.01,0.01,-0.02,0.0,0.0,0.0,7101,2019-03-25 16:50:07:408
0.42,0.41,9.92,0.01,0.01,-0.02,0.0,0.0,0.0,7106,2019-03-25 16:50:07:413
0.42,0.41,9.92,0.01,0.01,-0.02,0.0,0.0,0.0,7111,2019-03-25 16:50:07:418
0.42,0.41,9.92,0.01,0.01,-0.02,0.0,0.0,0.0,7116,2019-03-25 16:50:07:423
0.45,0.41,9.99,0.03,0.0,0.04,0.0,0.0,0.0,7121,2019-03-25 16:50:07:428