ACCELEROMETER X (m/s²),ACCELEROMETER Y (m/s²),ACCELEROMETER Z (m/s²),LINEAR ACCELERATION X (m/s²),LINEAR ACCELERATION Y (m/s²),LINEAR ACCELERATION Z (m/s²),GYROSCOPE X (rad/s),GYROSCOPE Y (rad/s),GYROSCOPE Z (rad/s),Time since start in ms ,YYYY-MO-DD HH-MI-SS_SSS
-1.39,2.14,9.44,-0.44,-0.04,-0.23,-0.59,-0.66,0.07,9,2019-03-25 16:00:56:695
-1.39,2.14,9.44,-0.44,-0.04,-0.23,-0.59,-0.66,0.07,14,2019-03-25 16:00:56:700
-1.39,2.14,9.44,-0.44,-0.04,-0.23,-0.59,-0.66,0.07,18,2019-03-25 16:00:56:704
-1.39,2.14,9.44,-0.44,-0.04,-0.23,-0.59,-0.66,0.07,24,2019-03-25 16:00:56:710
-1.39,2.14,9.44,-0.44,-0.04,-0.23,-0.59,-0.66,0.07,28,2019-03-25 16:00:56:714
-1.3,1.99,10.26,-0.42,-0.06,0.6,-0.58,-0.92,0.05,33,2019-03-25 16:00:56:719
-1.3,1.99,10.26,-0.42,-0.06,0.6,-0.58,-0.92,0.05,38,2019-03-25 16:00:56:724
-1.3,1.99,10.26,-0.42,-0.06,0.6,-0.58,-0.92,0.05,43,2019-03-25 16:00:56:729
-0.66,1.78,9.79,0.04,-0.14,0.09,-0.35,-0.76,0.2,48,2019-03-25 16:00:56:734
-0.66,1.78,9.79,0.04,-0.14,0.09,-0.35,-0.76,0.2,53,2019-03-25 16:00:56:739
-0.66,1.78,9.79,0.04,-0.14,0.09,-0.35,-0.76,0.2,58,2019-03-25 16:00:56:744
-0.26,1.68,9.96,0.37,-0.19,0.27,-0.33,-0.71,0.23,63,2019-03-25 16:00:56:749
-0.26,1.68,9.96,0.37,-0.19,0.27,-0.33,-0.71,0.23,68,2019-03-25 16:00:56:754
-0.26,1.68,9.96,0.37,-0.19,0.27,-0.33,-0.71,0.23,74,2019-03-25 16:00:56:760
-0.26,1.68,9.96,0.37,-0.19,0.27,-0.33,-0.71,0.23,78,2019-03-25 16:00:56:764
0.5,1.81,10.19,0.96,-0.01,0.5,-0.27,-0.52,0.23,83,2019-03-25 16:00:56:769
0.5,1.81,10.19,0.96,-0.01,0.5,-0.27,-0.52,0.23,88,2019-03-25 16:00:56:774
0.5,1.81,10.19,0.96,-0.01,0.5,-0.27,-0.52,0.23,93,2019-03-25 16:00:56:779
0.5,1.81,10.19,0.96,-0.01,0.5,-0.27,-0.52,0.23,98,2019-03-25 16:00:56:784
0.5,1.81,10.19,0.96,-0.01,0.5,-0.27,-0.52,0.23,103,2019-03-25 16:00:56:789
0.5,1.81,10.19,0.96,-0.01,0.5,-0.27,-0.52,0.23,108,2019-03-25 16:00:56:794
0.33,1.69,10.4,0.69,-0.11,0.62,-0.16,-0.12,0.13,113,2019-03-25 16:00:56:799
0.33,1.69,10.4,0.69,-0.11,0.62,-0.16,-0.12,0.13,118,2019-03-25 16:00:56:804
0.33,1.69,10.4,0.69,-0.11,0.62,-0.05,0.28,0.07,123,2019-03-25 16:00:56:809
0.33,1.69,10.4,0.69,-0.11,0.62,-0.05,0.28,0.07,127,2019-03-25 16:00:56:813
0.33,1.69,10.4,0.69,-0.11,0.62,-0.05,0.28,0.07,133,2019-03-25 16:00:56:819
0.33,1.69,10.4,0.69,-0.11,0.62,-0.05,0.28,0.07,138,2019-03-25 16:00:56:824
0.67,1.7,9.06,0.9,-0.06,-0.73,-0.03,0.03,0.05,143,2019-03-25 16:00:56:829
0.67,1.7,9.06,0.9,-0.06,-0.73,-0.03,0.03,0.05,148,2019-03-25 16:00:56:834
0.67,1.7,9.06,0.9,-0.06,-0.73,-0.03,0.03,0.05,153,2019-03-25 16:00:56:839
0.67,1.7,9.06,0.9,-0.06,-0.73,-0.03,0.03,0.05,158,2019-03-25 16:00:56:844
0.29,1.47,9.02,0.33,-0.23,-0.79,-0.18,-0.39,-0.03,163,2019-03-25 16:00:56:849
0.29,1.47,9.02,0.33,-0.23,-0.79,-0.18,-0.39,-0.03,168,2019-03-25 16:00:56:854
0.29,1.47,9.02,0.33,-0.23,-0.79,-0.18,-0.39,-0.03,173,2019-03-25 16:00:56:859
0.29,1.47,9.02,0.33,-0.23,-0.79,-0.18,-0.39,-0.03,178,2019-03-25 16:00:56:864
0.29,1.47,9.02,0.33,-0.23,-0.79,-0.18,-0.39,-0.03,183,2019-03-25 16:00:56:869
0.29,1.47,9.02,0.33,-0.23,-0.79,-0.18,-0.39,-0.03,188,2019-03-25 16:00:56:874
0.36,1.16,8.35,0.33,-0.23,-1.4,-0.5,-0.48,-0.11,193,2019-03-25 16:00:56:879
0.36,1.16,8.35,0.25,-0.41,-1.4,-0.5,-0.48,-0.11,198,2019-03-25 16:00:56:884
-0.12,1.26,6.92,0.25,-0.41,-1.4,-0.96,-1.2,-0.04,203,2019-03-25 16:00:56:889
-0.12,1.26,6.92,0.25,-0.41,-1.4,-0.96,-1.2,-0.04,208,2019-03-25 16:00:56:894
-0.12,1.26,6.92,0.25,-0.41,-1.4,-0.96,-1.2,-0.04,213,2019-03-25 16:00:56:899
-0.12,1.26,6.92,0.25,-0.41,-1.4,-0.96,-1.2,-0.04,218,2019-03-25 16:00:56:904
-0.12,1.26,6.92,0.25,-0.41,-1.4,-0.96,-1.2,-0.04,223,2019-03-25 16:00:56:909
-0.12,1.26,6.92,0.25,-0.41,-1.4,-0.96,-1.2,-0.04,228,2019-03-25 16:00:56:914
-0.25,1.36,7.32,-0.86,0.19,-2.04,-1.05,-1.5,-0.07,233,2019-03-25 16:00:56:919
-0.25,1.36,7.32,-0.86,0.19,-2.04,-1.05,-1.5,-0.07,238,2019-03-25 16:00:56:924
-0.25,1.36,7.32,-0.86,0.19,-2.04,-1.05,-1.5,-0.07,242,2019-03-25 16:00:56:928
0.45,-0.05,11.02,-1.19,-1.04,0.18,-1.2,-2.17,0.0,248,2019-03-25 16:00:56:934
0.45,-0.05,11.02,-1.19,-1.04,0.18,-1.2,-2.17,0.0,253,2019-03-25 16:00:56:939
0.45,-0.05,11.02,-1.19,-1.04,0.18,-1.2,-2.17,0.0,258,2019-03-25 16:00:56:944
0.45,0.73,11.66,-1.19,-1.04,0.18,-1.2,-2.17,0.0,263,2019-03-25 16:00:56:949
0.73,0.73,11.66,-0.6,0.14,2.33,-1.1,-2.09,0.26,268,2019-03-25 16:00:56:954
0.73,0.73,11.66,-0.6,0.14,2.33,-1.1,-2.09,0.26,273,2019-03-25 16:00:56:959
0.73,0.73,11.66,-0.6,0.14,2.33,-1.1,-2.09,0.26,278,2019-03-25 16:00:56:964
0.73,0.73,11.66,-0.6,0.14,2.33,-1.1,-2.09,0.26,284,2019-03-25 16:00:56:970
0.73,0.73,11.66,-0.6,0.14,2.33,-1.1,-2.09,0.26,288,2019-03-25 16:00:56:974
2.71,1.71,11.26,-0.6,0.14,2.33,-1.1,-2.09,0.26,292,2019-03-25 16:00:56:978
2.71,1.71,11.26,1.09,1.18,1.84,-0.64,-1.2,0.34,298,2019-03-25 16:00:56:984
2.71,1.71,11.26,1.09,1.18,1.84,-0.64,-1.2,0.34,303,2019-03-25 16:00:56:989
2.71,1.71,11.26,1.09,1.18,1.84,-0.64,-1.2,0.34,308,2019-03-25 16:00:56:994
2.42,0.8,10.82,0.6,0.29,1.36,-0.35,-0.68,0.12,314,2019-03-25 16:00:57:000
2.42,0.8,10.82,0.6,0.29,1.36,-0.35,-0.68,0.12,318,2019-03-25 16:00:57:004
2.42,0.8,10.82,0.6,0.29,1.36,-0.35,-0.68,0.12,323,2019-03-25 16:00:57:009
2.42,0.8,10.82,0.6,0.29,1.36,-0.35,-0.68,0.12,328,2019-03-25 16:00:57:014
1.69,0.62,10.1,-0.18,0.19,0.67,-0.38,-0.34,0.03,333,2019-03-25 16:00:57:019
1.69,0.62,10.1,-0.18,0.19,0.67,-0.38,-0.34,0.03,338,2019-03-25 16:00:57:024
1.69,0.62,10.1,-0.18,0.19,0.67,-0.38,-0.34,0.03,343,2019-03-25 16:00:57:029
1.52,0.54,9.8,-0.28,0.19,0.29,-0.4,-0.11,0.06,348,2019-03-25 16:00:57:034
1.52,0.54,9.8,-0.28,0.19,0.29,-0.4,-0.11,0.06,353,2019-03-25 16:00:57:039
1.52,0.54,9.8,-0.28,0.19,0.29,-0.4,-0.11,0.06,358,2019-03-25 16:00:57:044
1.52,0.54,9.8,-0.28,0.19,0.29,-0.4,-0.11,0.06,363,2019-03-25 16:00:57:049
1.22,0.85,9.47,-0.48,0.5,-0.07,-0.22,-0.06,-0.01,368,2019-03-25 16:00:57:054
1.22,0.85,9.47,-0.48,0.5,-0.07,-0.22,-0.06,-0.01,373,2019-03-25 16:00:57:059
1.22,0.85,9.47,-0.48,0.5,-0.07,-0.22,-0.06,-0.01,378,2019-03-25 16:00:57:064
1.22,0.85,9.47,-0.48,0.5,-0.07,-0.22,-0.06,-0.01,383,2019-03-25 16:00:57:069
1.22,0.85,9.47,-0.48,0.5,-0.07,-0.22,-0.06,-0.01,388,2019-03-25 16:00:57:074
1.17,0.86,9.42,-0.42,0.44,-0.22,-0.01,0.26,0.01,393,2019-03-25 16:00:57:079
1.17,0.86,9.42,-0.42,0.44,-0.22,-0.01,0.26,0.01,398,2019-03-25 16:00:57:084
1.17,0.86,9.42,-0.42,0.44,-0.22,-0.01,0.26,0.01,403,2019-03-25 16:00:57:089
1.17,0.86,9.42,-0.42,0.44,-0.22,-0.01,0.26,0.01,408,2019-03-25 16:00:57:094
1.86,0.38,9.34,0.41,-0.11,-0.43,0.08,0.77,0.08,413,2019-03-25 16:00:57:099
1.86,0.38,9.34,0.41,-0.11,-0.43,0.08,0.77,0.08,418,2019-03-25 16:00:57:104
1.86,0.38,9.34,0.41,-0.11,-0.43,0.08,0.77,0.08,423,2019-03-25 16:00:57:109
1.86,0.38,9.34,0.41,-0.11,-0.43,0.08,0.77,0.08,428,2019-03-25 16:00:57:114
1.83,0.68,10.17,0.41,0.14,0.08,0.02,0.54,0.0,433,2019-03-25 16:00:57:119
1.83,0.68,10.17,0.41,0.14,0.08,0.02,0.54,0.0,438,2019-03-25 16:00:57:124
1.83,0.68,10.17,0.41,0.14,0.08,0.02,0.54,0.0,443,2019-03-25 16:00:57:129
1.91,0.72,10.56,0.41,0.07,0.27,0.02,0.29,-0.07,447,2019-03-25 16:00:57:133
1.91,0.72,10.56,0.41,0.07,0.27,0.02,0.29,-0.07,454,2019-03-25 16:00:57:140
1.91,0.72,10.56,0.41,0.07,0.27,0.02,0.29,-0.07,458,2019-03-25 16:00:57:144
1.91,0.72,10.56,0.41,0.07,0.27,0.02,0.29,-0.07,463,2019-03-25 16:00:57:149
0.98,0.47,10.99,-0.49,-0.25,0.74,0.07,0.34,-0.16,468,2019-03-25 16:00:57:154
0.98,0.47,10.99,-0.49,-0.25,0.74,0.07,0.34,-0.16,473,2019-03-25 16:00:57:159
0.98,0.47,10.99,-0.49,-0.25,0.74,0.07,0.34,-0.16,478,2019-03-25 16:00:57:164
0.76,0.5,10.27,-0.5,-0.19,0.11,0.36,0.48,-0.09,483,2019-03-25 16:00:57:169
0.76,0.5,10.27,-0.5,-0.19,0.11,0.36,0.48,-0.09,488,2019-03-25 16:00:57:174
0.76,0.5,10.27,-0.5,-0.19,0.11,0.36,0.48,-0.09,493,2019-03-25 16:00:57:179
0.76,0.5,10.27,-0.5,-0.19,0.11,0.36,0.48,-0.09,498,2019-03-25 16:00:57:184
0.76,0.5,10.27,-0.5,-0.19,0.11,0.36,0.48,-0.09,503,2019-03-25 16:00:57:189
0.91,0.66,9.61,-0.12,-0.11,-0.41,0.63,0.33,-0.02,514,2019-03-25 16:00:57:200
0.91,0.66,9.61,-0.12,-0.11,-0.41,0.63,0.33,-0.02,515,2019-03-25 16:00:57:201
0.91,0.66,9.61,-0.12,-0.11,-0.41,0.63,0.33,-0.02,518,2019-03-25 16:00:57:204
0.91,0.66,9.61,-0.12,-0.11,-0.41,0.63,0.33,-0.02,523,2019-03-25 16:00:57:209
0.91,0.66,9.61,-0.12,-0.11,-0.41,0.63,0.33,-0.02,528,2019-03-25 16:00:57:214
0.88,0.69,9.45,-0.07,-0.21,-0.5,0.73,0.23,0.0,533,2019-03-25 16:00:57:219
0.88,0.69,9.45,-0.07,-0.21,-0.5,0.73,0.23,0.0,538,2019-03-25 16:00:57:224
0.88,0.69,9.45,-0.07,-0.21,-0.5,0.65,0.25,0.0,543,2019-03-25 16:00:57:229
1.35,1.26,9.91,0.12,-0.07,-0.42,0.65,0.25,0.0,548,2019-03-25 16:00:57:234
1.35,1.26,9.91,0.12,-0.07,-0.42,0.65,0.25,0.0,553,2019-03-25 16:00:57:239
1.35,1.26,9.91,0.12,-0.07,-0.42,0.65,0.25,0.0,558,2019-03-25 16:00:57:244
1.37,1.55,10.09,0.41,0.41,0.17,0.33,0.21,-0.02,563,2019-03-25 16:00:57:249
1.37,1.55,10.09,0.41,0.41,0.17,0.33,0.21,-0.02,568,2019-03-25 16:00:57:254
1.37,1.55,10.09,0.41,0.41,0.17,0.33,0.21,-0.02,573,2019-03-25 16:00:57:259
1.37,1.55,10.09,0.41,0.41,0.17,0.33,0.21,-0.02,578,2019-03-25 16:00:57:264
1.37,1.55,10.09,0.41,0.41,0.17,0.33,0.21,-0.02,584,2019-03-25 16:00:57:270
1.37,1.55,10.09,0.41,0.41,0.17,0.33,0.21,-0.02,588,2019-03-25 16:00:57:274
1.37,1.55,10.09,0.41,0.41,0.17,0.33,0.21,-0.02,593,2019-03-25 16:00:57:279
1.37,1.55,10.09,0.41,0.41,0.17,0.33,0.21,-0.02,598,2019-03-25 16:00:57:284
1.09,1.43,9.54,0.13,0.24,-0.4,0.18,0.54,-0.1,603,2019-03-25 16:00:57:289
1.09,1.43,9.54,0.13,0.24,-0.4,0.18,0.54,-0.1,608,2019-03-25 16:00:57:294
1.09,1.43,9.54,0.13,0.24,-0.4,0.18,0.54,-0.1,614,2019-03-25 16:00:57:300
1.09,1.43,9.54,0.13,0.24,-0.4,0.18,0.54,-0.1,618,2019-03-25 16:00:57:304
0.52,1.09,8.79,-0.16,-0.14,-0.96,0.01,0.37,-0.15,623,2019-03-25 16:00:57:309
0.52,1.09,8.79,-0.16,-0.14,-0.96,0.01,0.37,-0.15,628,2019-03-25 16:00:57:314
0.52,1.09,8.79,-0.16,-0.14,-0.96,0.01,0.37,-0.15,634,2019-03-25 16:00:57:320
0.52,1.09,8.79,-0.16,-0.14,-0.96,0.01,0.37,-0.15,638,2019-03-25 16:00:57:324
0.52,1.09,8.79,-0.16,-0.14,-0.96,0.01,0.37,-0.15,643,2019-03-25 16:00:57:329
0.61,1.22,9.23,0.01,0.03,-0.4,-0.16,0.12,-0.25,648,2019-03-25 16:00:57:334
0.61,1.22,9.23,0.01,0.03,-0.4,-0.16,0.12,-0.25,653,2019-03-25 16:00:57:339
0.61,1.22,9.23,0.01,0.03,-0.4,-0.16,0.12,-0.25,658,2019-03-25 16:00:57:344
0.48,1.44,10.19,-0.06,0.25,0.64,-0.28,0.15,-0.29,663,2019-03-25 16:00:57:349
0.48,1.44,10.19,-0.06,0.25,0.64,-0.28,0.15,-0.29,668,2019-03-25 16:00:57:354
0.48,1.44,10.19,-0.06,0.25,0.64,-0.28,0.15,-0.29,673,2019-03-25 16:00:57:359
0.48,1.44,10.19,-0.06,0.25,0.64,-0.28,0.15,-0.29,677,2019-03-25 16:00:57:363
0.57,1.3,10.55,0.06,0.14,0.99,-0.35,0.57,-0.31,683,2019-03-25 16:00:57:369
0.57,1.3,10.55,0.06,0.14,0.99,-0.35,0.57,-0.31,688,2019-03-25 16:00:57:374
0.57,1.3,10.55,0.06,0.14,0.99,-0.35,0.57,-0.31,693,2019-03-25 16:00:57:379
0.57,1.3,10.55,0.06,0.14,0.99,-0.35,0.57,-0.31,698,2019-03-25 16:00:57:384
0.53,0.81,10.31,0.17,-0.28,0.67,-0.27,0.92,-0.37,703,2019-03-25 16:00:57:389
0.53,0.81,10.31,0.17,-0.28,0.67,-0.27,0.92,-0.37,708,2019-03-25 16:00:57:394
0.53,0.81,10.31,0.17,-0.28,0.67,-0.27,0.92,-0.37,714,2019-03-25 16:00:57:400
0.53,0.81,10.31,0.17,-0.28,0.67,-0.27,0.92,-0.37,718,2019-03-25 16:00:57:404
-0.07,0.64,10.3,-0.22,-0.41,0.57,-0.06,1.03,-0.41,723,2019-03-25 16:00:57:409
-0.07,0.64,10.3,-0.22,-0.41,0.57,-0.06,1.03,-0.41,729,2019-03-25 16:00:57:415
-0.07,0.64,10.3,-0.22,-0.41,0.57,-0.06,1.03,-0.41,733,2019-03-25 16:00:57:419
-0.07,0.64,10.3,-0.22,-0.41,0.57,-0.06,1.03,-0.41,738,2019-03-25 16:00:57:424
-0.07,0.64,10.3,-0.22,-0.41,0.57,-0.06,1.03,-0.41,743,2019-03-25 16:00:57:429
-0.07,0.64,10.3,-0.22,-0.41,0.57,-0.06,1.03,-0.41,749,2019-03-25 16:00:57:435
-0.32,0.71,10.3,-0.29,-0.32,0.49,0.0,0.71,-0.4,753,2019-03-25 16:00:57:439
-0.32,0.71,10.3,-0.29,-0.32,0.49,0.0,0.71,-0.4,758,2019-03-25 16:00:57:444
-0.57,0.67,9.92,-0.29,-0.32,0.49,0.04,0.62,-0.37,765,2019-03-25 16:00:57:451
-0.57,0.67,9.92,-0.29,-0.32,0.49,0.04,0.62,-0.37,768,2019-03-25 16:00:57:454
-0.57,0.67,9.92,-0.29,-0.32,0.49,0.04,0.62,-0.37,773,2019-03-25 16:00:57:459
-0.57,0.67,9.92,-0.29,-0.32,0.49,0.04,0.62,-0.37,778,2019-03-25 16:00:57:464
-0.68,0.33,9.83,-0.24,-0.56,0.02,-0.02,0.61,-0.37,783,2019-03-25 16:00:57:469
-0.68,0.33,9.83,-0.24,-0.56,0.02,-0.02,0.61,-0.37,789,2019-03-25 16:00:57:475
-0.68,0.33,9.83,-0.24,-0.56,0.02,-0.02,0.61,-0.37,792,2019-03-25 16:00:57:478
-0.68,0.33,9.83,-0.24,-0.56,0.02,-0.02,0.61,-0.37,798,2019-03-25 16:00:57:484
-0.68,0.33,9.83,-0.24,-0.56,0.02,-0.02,0.61,-0.37,803,2019-03-25 16:00:57:489
-0.68,0.33,9.83,-0.24,-0.56,0.02,-0.02,0.61,-0.37,808,2019-03-25 16:00:57:494
-1.03,0.22,9.46,-0.41,-0.56,-0.4,-0.05,0.66,-0.25,813,2019-03-25 16:00:57:499
-1.03,0.22,9.46,-0.41,-0.56,-0.4,-0.05,0.66,-0.25,818,2019-03-25 16:00:57:504
-1.03,0.22,9.46,-0.41,-0.56,-0.4,-0.05,0.66,-0.25,823,2019-03-25 16:00:57:509
-1.03,0.22,9.46,-0.41,-0.56,-0.4,-0.05,0.66,-0.25,828,2019-03-25 16:00:57:514
-1.15,0.23,9.19,-0.36,-0.47,-0.73,-0.11,0.5,-0.1,833,2019-03-25 16:00:57:519
-1.15,0.23,9.19,-0.36,-0.47,-0.73,-0.11,0.5,-0.1,838,2019-03-25 16:00:57:524
-1.15,0.23,9.19,-0.36,-0.47,-0.73,-0.11,0.5,-0.1,844,2019-03-25 16:00:57:530
-1.15,0.23,9.19,-0.36,-0.47,-0.73,-0.11,0.5,-0.1,848,2019-03-25 16:00:57:534
-0.94,0.66,9.52,-0.06,0.02,-0.42,-0.2,0.23,0.0,853,2019-03-25 16:00:57:539
-0.94,0.66,9.52,-0.06,0.02,-0.42,-0.2,0.23,0.0,858,2019-03-25 16:00:57:544
-0.5,0.86,9.73,0.35,0.31,-0.18,-0.22,-0.16,0.03,863,2019-03-25 16:00:57:549
-0.5,0.86,9.73,0.35,0.31,-0.18,-0.22,-0.16,0.03,868,2019-03-25 16:00:57:554
-0.5,0.86,9.73,0.35,0.31,-0.18,-0.22,-0.16,0.03,873,2019-03-25 16:00:57:559
-0.5,0.86,9.73,0.35,0.31,-0.18,-0.22,-0.16,0.03,878,2019-03-25 16:00:57:564
-0.85,0.84,10.03,-0.03,0.35,0.15,-0.23,-0.27,0.0,883,2019-03-25 16:00:57:569
-0.85,0.84,10.03,-0.03,0.35,0.15,-0.23,-0.27,0.0,888,2019-03-25 16:00:57:574
-0.85,0.84,10.03,-0.03,0.35,0.15,-0.23,-0.27,0.0,893,2019-03-25 16:00:57:579
-0.85,0.84,10.03,-0.03,0.35,0.15,-0.23,-0.27,0.0,897,2019-03-25 16:00:57:583
-0.85,0.84,10.03,-0.03,0.35,0.15,-0.23,-0.27,0.0,903,2019-03-25 16:00:57:589
-0.85,0.84,10.03,-0.03,0.35,0.15,-0.23,-0.27,0.0,908,2019-03-25 16:00:57:594
-0.85,0.84,10.03,-0.03,0.35,0.15,-0.23,-0.27,0.0,913,2019-03-25 16:00:57:599
-0.45,0.66,10.94,0.32,0.23,1.05,-0.27,-0.28,-0.02,918,2019-03-25 16:00:57:604
-0.45,0.66,10.94,0.32,0.23,1.05,-0.27,-0.28,-0.02,923,2019-03-25 16:00:57:609
-0.45,0.66,10.94,0.32,0.23,1.05,-0.27,-0.28,-0.02,928,2019-03-25 16:00:57:614
-0.45,0.66,10.94,0.32,0.23,1.05,-0.27,-0.28,-0.02,934,2019-03-25 16:00:57:620
-0.45,0.66,10.94,0.32,0.23,1.05,-0.27,-0.28,-0.02,937,2019-03-25 16:00:57:623
-0.31,0.7,9.63,0.34,0.31,-0.21,0.0,-0.09,0.03,943,2019-03-25 16:00:57:629
-0.31,0.7,9.63,0.34,0.31,-0.21,0.0,-0.09,0.03,948,2019-03-25 16:00:57:634
-0.31,0.7,9.63,0.34,0.31,-0.21,0.0,-0.09,0.03,953,2019-03-25 16:00:57:639
-0.31,0.7,9.63,0.34,0.31,-0.21,0.0,-0.09,0.03,958,2019-03-25 16:00:57:644
-0.31,0.7,9.63,0.34,0.31,-0.21,0.0,-0.09,0.03,963,2019-03-25 16:00:57:649
-0.31,0.7,9.63,0.34,0.31,-0.21,0.0,-0.09,0.03,968,2019-03-25 16:00:57:654
-0.41,0.5,9.74,0.18,0.12,-0.07,-0.09,-0.07,0.0,973,2019-03-25 16:00:57:659
-0.41,0.5,9.74,0.18,0.12,-0.07,-0.09,-0.07,0.0,978,2019-03-25 16:00:57:664
-0.41,0.5,9.74,0.18,0.12,-0.07,-0.13,-0.2,0.03,982,2019-03-25 16:00:57:668
-0.41,0.5,9.74,0.18,0.12,-0.07,-0.13,-0.2,0.03,988,2019-03-25 16:00:57:674
-0.41,0.5,9.74,0.18,0.12,-0.07,-0.13,-0.2,0.03,993,2019-03-25 16:00:57:679
-0.41,0.5,9.74,0.18,0.12,-0.07,-0.13,-0.2,0.03,998,2019-03-25 16:00:57:684
-0.41,0.5,9.74,0.18,0.12,-0.07,-0.13,-0.2,0.03,1003,2019-03-25 16:00:57:689
-0.41,0.5,9.74,0.18,0.12,-0.07,-0.13,-0.2,0.03,1008,2019-03-25 16:00:57:694
-0.14,0.67,10.19,0.26,0.21,0.3,-0.13,-0.28,0.04,1013,2019-03-25 16:00:57:699
-0.14,0.67,10.19,0.26,0.21,0.3,-0.13,-0.28,0.04,1018,2019-03-25 16:00:57:704
-0.14,0.67,10.19,0.26,0.21,0.3,-0.13,-0.36,0.01,1023,2019-03-25 16:00:57:709
-0.14,0.67,10.19,0.26,0.21,0.3,-0.13,-0.36,0.01,1028,2019-03-25 16:00:57:714
-0.14,0.67,10.19,0.26,0.21,0.3,-0.13,-0.36,0.01,1033,2019-03-25 16:00:57:719
-0.14,0.67,10.19,0.26,0.21,0.3,-0.13,-0.36,0.01,1038,2019-03-25 16:00:57:724
-0.2,0.45,10.44,-0.04,-0.07,0.33,-0.07,-0.24,-0.07,1044,2019-03-25 16:00:57:730
-0.2,0.45,10.44,-0.04,-0.07,0.33,-0.07,-0.24,-0.07,1048,2019-03-25 16:00:57:734
-0.2,0.45,10.44,-0.04,-0.07,0.33,-0.07,-0.24,-0.07,1053,2019-03-25 16:00:57:739
-0.2,0.45,10.44,-0.04,-0.07,0.33,-0.07,-0.24,-0.07,1058,2019-03-25 16:00:57:744
-0.2,0.45,10.44,-0.04,-0.07,0.33,-0.07,-0.24,-0.07,1063,2019-03-25 16:00:57:749
-0.18,0.53,10.14,-0.05,0.02,-0.01,-0.07,-0.07,-0.07,1068,2019-03-25 16:00:57:754
-0.18,0.53,10.14,-0.05,0.02,-0.01,-0.07,-0.07,-0.07,1073,2019-03-25 16:00:57:759
-0.18,0.53,10.14,-0.05,0.02,-0.01,-0.07,-0.07,-0.07,1078,2019-03-25 16:00:57:764
-0.2,0.67,10.04,-0.08,0.17,-0.12,-0.06,0.03,-0.07,1083,2019-03-25 16:00:57:769
-0.2,0.67,10.04,-0.08,0.17,-0.12,-0.06,0.03,-0.07,1088,2019-03-25 16:00:57:774
-0.2,0.67,10.04,-0.08,0.17,-0.12,-0.06,0.03,-0.07,1093,2019-03-25 16:00:57:779
-0.2,0.67,10.04,-0.08,0.17,-0.12,-0.06,0.03,-0.07,1098,2019-03-25 16:00:57:784
-0.2,0.67,10.04,-0.08,0.17,-0.12,-0.06,0.03,-0.07,1103,2019-03-25 16:00:57:789
-0.2,0.67,10.04,-0.08,0.17,-0.12,-0.06,0.03,-0.07,1108,2019-03-25 16:00:57:794
-0.2,0.67,10.04,-0.08,0.17,-0.12,-0.06,0.03,-0.07,1113,2019-03-25 16:00:57:799
-0.2,0.67,10.04,-0.08,0.17,-0.12,-0.06,0.03,-0.07,1118,2019-03-25 16:00:57:804
-0.5,0.68,9.64,-0.3,0.16,-0.43,-0.07,0.35,-0.06,1123,2019-03-25 16:00:57:809
-0.5,0.68,9.64,-0.3,0.16,-0.43,-0.07,0.35,-0.06,1128,2019-03-25 16:00:57:814
-0.5,0.68,9.64,-0.3,0.16,-0.43,-0.07,0.35,-0.06,1134,2019-03-25 16:00:57:820
-0.5,0.68,9.64,-0.3,0.16,-0.43,-0.07,0.35,-0.06,1138,2019-03-25 16:00:57:824
-1.02,0.76,9.28,-0.3,0.16,-0.43,-0.28,1.5,0.0,1143,2019-03-25 16:00:57:829
-1.02,0.76,9.28,-0.33,0.25,-0.73,-0.28,1.5,0.0,1148,2019-03-25 16:00:57:834
-1.02,0.76,9.28,-0.33,0.25,-0.73,-0.28,1.5,0.0,1153,2019-03-25 16:00:57:839
-1.02,0.76,9.28,-0.33,0.25,-0.73,-0.28,1.5,0.0,1158,2019-03-25 16:00:57:844
-1.02,0.76,9.28,-0.33,0.25,-0.73,-0.28,1.5,0.0,1163,2019-03-25 16:00:57:849
-2.54,0.17,9.69,-1.38,-0.28,-0.28,-0.3,1.68,-0.11,1168,2019-03-25 16:00:57:854
-2.54,0.17,9.69,-1.38,-0.28,-0.28,-0.3,1.68,-0.11,1173,2019-03-25 16:00:57:859
-2.54,0.17,9.69,-1.38,-0.28,-0.28,-0.3,1.68,-0.11,1178,2019-03-25 16:00:57:864
-2.54,0.17,9.69,-1.38,-0.28,-0.28,-0.3,1.68,-0.11,1183,2019-03-25 16:00:57:869
-2.54,0.17,9.69,-1.38,-0.28,-0.28,-0.3,1.68,-0.11,1188,2019-03-25 16:00:57:874
-3.21,-0.13,9.93,-1.38,-0.28,-0.28,-0.37,2.29,-0.12,1193,2019-03-25 16:00:57:879
-3.21,-0.13,9.93,-1.46,-0.48,0.0,-0.37,2.29,-0.12,1199,2019-03-25 16:00:57:885
-3.21,-0.13,9.93,-1.46,-0.48,0.0,-0.37,2.29,-0.12,1204,2019-03-25 16:00:57:890
-3.21,-0.13,9.93,-1.46,-0.48,0.0,-0.37,2.29,-0.12,1208,2019-03-25 16:00:57:894
-2.52,-0.32,9.45,-0.11,-0.54,-0.34,-0.29,3.06,-0.18,1214,2019-03-25 16:00:57:900
-2.52,-0.32,9.45,-0.11,-0.54,-0.34,-0.29,3.06,-0.18,1218,2019-03-25 16:00:57:904
-2.52,-0.32,9.45,-0.11,-0.54,-0.34,-0.29,3.06,-0.18,1223,2019-03-25 16:00:57:909
-2.52,-0.32,9.45,-0.11,-0.54,-0.34,-0.29,3.06,-0.18,1229,2019-03-25 16:00:57:915
-2.52,-0.32,9.45,-0.11,-0.54,-0.34,-0.29,3.06,-0.18,1233,2019-03-25 16:00:57:919
-2.52,-0.32,9.45,-0.11,-0.54,-0.34,-0.29,3.06,-0.18,1238,2019-03-25 16:00:57:924
-5.87,-1.61,12.45,-1.86,-1.53,2.72,0.32,3.02,-0.38,1243,2019-03-25 16:00:57:929
-5.87,-1.61,12.45,-1.86,-1.53,2.72,0.32,3.02,-0.38,1248,2019-03-25 16:00:57:934
-5.87,-1.61,12.45,-1.86,-1.53,2.72,0.32,3.02,-0.38,1253,2019-03-25 16:00:57:939
-5.87,-1.61,12.45,-1.86,-1.53,2.72,0.32,3.02,-0.38,1258,2019-03-25 16:00:57:944
-5.25,-1.2,12.82,-0.55,-1.07,2.96,0.74,2.68,0.02,1263,2019-03-25 16:00:57:949
-5.25,-1.2,12.82,-0.55,-1.07,2.96,0.74,2.68,0.02,1268,2019-03-25 16:00:57:954
-5.25,-1.2,12.82,-0.55,-1.07,2.96,0.74,2.68,0.02,1273,2019-03-25 16:00:57:959
-5.25,-1.2,12.82,-0.55,-1.07,2.96,0.74,2.68,0.02,1278,2019-03-25 16:00:57:964
-3.38,-0.54,11.23,1.77,-0.5,1.33,1.1,2.92,0.64,1283,2019-03-25 16:00:57:969
-3.38,-0.54,11.23,1.77,-0.5,1.33,1.1,2.92,0.64,1288,2019-03-25 16:00:57:974
-3.38,-0.54,11.23,1.77,-0.5,1.33,1.1,2.92,0.64,1295,2019-03-25 16:00:57:981
-3.38,-0.54,11.23,1.77,-0.5,1.33,1.1,2.92,0.64,1298,2019-03-25 16:00:57:984
-1.73,1.18,7.51,3.76,0.95,-2.02,1.28,3.96,1.11,1303,2019-03-25 16:00:57:989
-1.73,1.18,7.51,3.76,0.95,-2.02,1.28,3.96,1.11,1308,2019-03-25 16:00:57:994
-1.73,1.18,7.51,3.76,0.95,-2.02,1.28,3.96,1.11,1313,2019-03-25 16:00:57:999
-1.73,1.18,7.51,3.76,0.95,-2.02,1.28,3.96,1.11,1318,2019-03-25 16:00:58:004
-1.73,1.18,7.51,3.76,0.95,-2.02,1.28,3.96,1.11,1323,2019-03-25 16:00:58:009
-1.73,1.18,7.51,3.76,0.95,-2.02,1.28,3.96,1.11,1328,2019-03-25 16:00:58:014
-2.47,3.92,6.5,3.26,3.23,-2.43,0.53,3.7,1.26,1333,2019-03-25 16:00:58:019
-2.47,3.92,6.5,3.26,3.23,-2.43,0.53,3.7,1.26,1338,2019-03-25 16:00:58:024
-2.47,3.92,6.5,3.26,3.23,-2.43,0.53,3.7,1.26,1343,2019-03-25 16:00:58:029
-5.1,2.67,6.23,2.5,2.47,-0.63,-0.9,3.53,-0.35,1348,2019-03-25 16:00:58:034
-5.1,2.67,6.23,2.5,2.47,-0.63,-0.9,3.53,-0.35,1353,2019-03-25 16:00:58:039
-5.1,2.67,6.23,2.5,2.47,-0.63,-0.9,3.53,-0.35,1359,2019-03-25 16:00:58:045
-5.86,1.75,6.29,0.45,0.9,-1.71,-0.76,3.3,-0.68,1363,2019-03-25 16:00:58:049
-5.86,1.75,6.29,0.45,0.9,-1.71,-0.76,3.3,-0.68,1368,2019-03-25 16:00:58:054
-5.86,1.75,6.29,0.45,0.9,-1.71,-0.76,3.3,-0.68,1373,2019-03-25 16:00:58:059
-5.86,1.75,6.29,0.45,0.9,-1.71,-0.76,3.3,-0.68,1378,2019-03-25 16:00:58:064
-6.83,0.94,6.85,-0.34,0.19,-0.75,-0.17,2.26,-0.8,1383,2019-03-25 16:00:58:069
-6.83,0.94,6.85,-0.34,0.19,-0.75,-0.17,2.26,-0.8,1388,2019-03-25 16:00:58:074
-6.83,0.94,6.85,-0.34,0.19,-0.75,-0.17,2.26,-0.8,1393,2019-03-25 16:00:58:079
-6.83,0.94,6.85,-0.34,0.19,-0.75,-0.17,2.26,-0.8,1398,2019-03-25 16:00:58:084
-6.83,0.94,6.85,-0.34,0.19,-0.75,-0.17,2.26,-0.8,1403,2019-03-25 16:00:58:089
-6.83,0.94,6.85,-0.34,0.19,-0.75,-0.17,2.26,-0.8,1409,2019-03-25 16:00:58:095
-7.1,0.41,8.06,-0.45,-0.27,0.59,0.24,1.72,-0.66,1413,2019-03-25 16:00:58:099
-7.1,0.41,8.06,-0.45,-0.27,0.59,0.24,1.72,-0.66,1418,2019-03-25 16:00:58:104
-7.1,0.41,8.06,-0.45,-0.27,0.59,0.24,1.72,-0.66,1423,2019-03-25 16:00:58:109
-7.1,0.41,8.06,-0.45,-0.27,0.59,0.24,1.72,-0.66,1428,2019-03-25 16:00:58:114
-7.64,0.62,8.47,-0.81,-0.12,1.14,0.29,1.77,-0.48,1433,2019-03-25 16:00:58:119
-7.64,0.62,8.47,-0.81,-0.12,1.14,0.29,1.77,-0.48,1438,2019-03-25 16:00:58:124
-7.64,0.62,8.47,-0.81,-0.12,1.14,0.29,1.77,-0.48,1443,2019-03-25 16:00:58:129
-7.71,0.6,8.53,-0.8,-0.26,1.63,-0.06,2.32,-0.4,1448,2019-03-25 16:00:58:134
-7.71,0.6,8.53,-0.8,-0.26,1.63,-0.06,2.32,-0.4,1453,2019-03-25 16:00:58:139
-7.71,0.6,8.53,-0.8,-0.26,1.63,-0.06,2.32,-0.4,1458,2019-03-25 16:00:58:144
-7.71,0.6,8.53,-0.8,-0.26,1.63,-0.06,2.32,-0.4,1464,2019-03-25 16:00:58:150
-7.71,0.6,8.53,-0.8,-0.26,1.63,-0.06,2.32,-0.4,1469,2019-03-25 16:00:58:155
-7.81,0.48,7.07,-0.82,-0.49,0.74,-0.13,2.52,-0.24,1473,2019-03-25 16:00:58:159
-7.81,0.48,7.07,-0.82,-0.49,0.74,-0.13,2.52,-0.24,1478,2019-03-25 16:00:58:164
-7.81,0.48,7.07,-0.82,-0.49,0.74,-0.13,2.52,-0.24,1483,2019-03-25 16:00:58:169
-7.81,0.48,7.07,-0.82,-0.49,0.74,-0.13,2.52,-0.24,1488,2019-03-25 16:00:58:174
-8.82,0.77,4.3,-0.82,-0.49,0.74,0.29,2.55,-0.11,1494,2019-03-25 16:00:58:180
-8.82,0.77,4.3,-1.48,-0.33,-1.27,0.29,2.55,-0.11,1498,2019-03-25 16:00:58:184
-8.82,0.77,4.3,-1.48,-0.33,-1.27,0.29,2.55,-0.11,1503,2019-03-25 16:00:58:189
-8.82,0.77,4.3,-1.48,-0.33,-1.27,0.29,2.55,-0.11,1511,2019-03-25 16:00:58:197
-8.82,0.77,4.3,-1.48,-0.33,-1.27,0.29,2.55,-0.11,1513,2019-03-25 16:00:58:199
-9.47,0.11,3.36,-1.54,-1.0,-1.66,0.34,2.37,-0.05,1518,2019-03-25 16:00:58:204
-9.47,0.11,3.36,-1.54,-1.0,-1.66,0.34,2.37,-0.05,1523,2019-03-25 16:00:58:209
-9.47,0.11,3.36,-1.54,-1.0,-1.66,0.34,2.37,-0.05,1528,2019-03-25 16:00:58:214
-9.47,0.11,3.36,-1.54,-1.0,-1.66,0.34,2.37,-0.05,1534,2019-03-25 16:00:58:220
-9.47,0.11,3.36,-1.54,-1.0,-1.66,0.34,2.37,-0.05,1538,2019-03-25 16:00:58:224
-7.97,0.62,4.09,0.77,0.0,-0.35,0.11,1.81,-0.23,1543,2019-03-25 16:00:58:229
-7.97,0.62,4.09,0.77,0.0,-0.35,0.11,1.81,-0.23,1549,2019-03-25 16:00:58:235
-7.97,0.62,4.09,0.77,0.0,-0.35,0.11,1.81,-0.23,1554,2019-03-25 16:00:58:240
-7.97,0.62,4.09,0.77,0.0,-0.35,0.11,1.81,-0.23,1558,2019-03-25 16:00:58:244
-9.03,0.9,3.17,-0.05,0.42,-0.91,0.25,2.16,-0.43,1563,2019-03-25 16:00:58:249
-9.03,0.9,3.17,-0.05,0.42,-0.91,0.25,2.16,-0.43,1568,2019-03-25 16:00:58:254
-9.03,0.9,3.17,-0.05,0.42,-0.91,0.25,2.16,-0.43,1575,2019-03-25 16:00:58:261
-9.03,0.9,3.17,-0.05,0.42,-0.91,0.25,2.16,-0.43,1578,2019-03-25 16:00:58:264
-9.95,-0.46,4.49,-0.74,-0.75,0.63,-0.07,1.6,-0.57,1583,2019-03-25 16:00:58:269
-9.95,-0.46,4.49,-0.74,-0.75,0.63,-0.07,1.6,-0.57,1588,2019-03-25 16:00:58:274
-9.95,-0.46,4.49,-0.74,-0.75,0.63,-0.07,1.6,-0.57,1594,2019-03-25 16:00:58:280
-9.95,-0.46,4.49,-0.74,-0.75,0.63,-0.07,1.6,-0.57,1598,2019-03-25 16:00:58:284
-9.95,-0.46,4.49,-0.74,-0.75,0.63,-0.07,1.6,-0.57,1603,2019-03-25 16:00:58:289
-9.95,-0.46,4.49,-0.74,-0.75,0.63,-0.07,1.6,-0.57,1611,2019-03-25 16:00:58:297
-10.74,0.17,4.59,-1.29,0.0,0.96,-0.1,1.57,-0.39,1613,2019-03-25 16:00:58:299
-10.74,0.17,4.59,-1.29,0.0,0.96,-0.1,1.57,-0.39,1618,2019-03-25 16:00:58:304
-10.74,0.17,4.59,-1.29,0.0,0.96,-0.1,1.57,-0.39,1623,2019-03-25 16:00:58:309
-10.74,0.17,4.59,-1.29,0.0,0.96,-0.1,1.57,-0.39,1627,2019-03-25 16:00:58:313
-11.64,-0.09,3.76,-1.88,-0.2,0.61,-0.18,2.15,-0.27,1636,2019-03-25 16:00:58:322
-11.64,-0.09,3.76,-1.88,-0.2,0.61,-0.18,2.15,-0.27,1638,2019-03-25 16:00:58:324
-11.64,-0.09,3.76,-1.88,-0.2,0.61,0.06,1.95,0.14,1643,2019-03-25 16:00:58:329
-10.33,0.33,4.13,-0.66,-0.16,1.71,0.06,1.95,0.14,1648,2019-03-25 16:00:58:334
-10.33,0.33,4.13,-0.66,-0.16,1.71,0.06,1.95,0.14,1653,2019-03-25 16:00:58:339
-10.33,0.33,4.13,-0.66,-0.16,1.71,0.06,1.95,0.14,1658,2019-03-25 16:00:58:344
-10.33,0.33,4.13,-0.66,-0.16,1.71,0.06,1.95,0.14,1663,2019-03-25 16:00:58:349
-10.33,0.33,4.13,-0.66,-0.16,1.71,0.06,1.95,0.14,1668,2019-03-25 16:00:58:354
-10.12,0.27,3.5,0.21,0.18,1.32,0.36,1.98,0.25,1673,2019-03-25 16:00:58:359
-10.12,0.27,3.5,0.21,0.18,1.32,0.36,1.98,0.25,1678,2019-03-25 16:00:58:364
-9.86,0.23,1.85,0.21,0.18,1.32,0.48,2.22,0.22,1684,2019-03-25 16:00:58:370
-9.86,0.23,1.85,0.21,0.18,1.32,0.48,2.22,0.22,1688,2019-03-25 16:00:58:374
-9.86,0.23,1.85,0.21,0.18,1.32,0.48,2.22,0.22,1693,2019-03-25 16:00:58:379
-9.86,0.23,1.85,0.21,0.18,1.32,0.48,2.22,0.22,1698,2019-03-25 16:00:58:384
-9.86,0.23,1.85,0.21,0.18,1.32,0.48,2.22,0.22,1703,2019-03-25 16:00:58:389
-9.86,0.23,1.85,0.21,0.18,1.32,0.48,2.22,0.22,1709,2019-03-25 16:00:58:395
-9.86,0.23,1.85,0.21,0.18,1.32,0.48,2.22,0.22,1713,2019-03-25 16:00:58:399
-9.36,0.12,0.86,0.99,-0.07,-0.78,0.39,2.29,0.2,1718,2019-03-25 16:00:58:404
-9.36,0.12,0.86,0.99,-0.07,-0.78,0.39,2.29,0.2,1722,2019-03-25 16:00:58:408
-9.36,0.12,0.86,0.99,-0.07,-0.78,0.39,2.29,0.2,1728,2019-03-25 16:00:58:414
-9.27,0.4,-0.53,1.14,0.17,-1.68,0.3,2.21,0.16,1733,2019-03-25 16:00:58:419
-9.27,0.4,-0.53,1.14,0.17,-1.68,0.3,2.21,0.16,1738,2019-03-25 16:00:58:424
-9.27,0.4,-0.53,1.14,0.17,-1.68,0.3,2.21,0.16,1743,2019-03-25 16:00:58:429
-9.27,0.4,-0.53,1.14,0.17,-1.68,0.3,2.21,0.16,1748,2019-03-25 16:00:58:434
-8.9,0.87,-0.44,1.52,0.58,-1.19,0.16,1.77,0.17,1753,2019-03-25 16:00:58:439
-8.9,0.87,-0.44,1.52,0.58,-1.19,0.16,1.77,0.17,1758,2019-03-25 16:00:58:444
-8.87,0.73,0.91,1.52,0.58,-1.19,0.14,1.45,0.09,1763,2019-03-25 16:00:58:449
-8.87,0.73,0.91,1.52,0.58,-1.19,0.14,1.45,0.09,1768,2019-03-25 16:00:58:454
-8.87,0.73,0.91,1.52,0.58,-1.19,0.14,1.45,0.09,1773,2019-03-25 16:00:58:459
-8.87,0.73,0.91,1.52,0.58,-1.19,0.14,1.45,0.09,1778,2019-03-25 16:00:58:464
-8.87,0.73,0.91,1.52,0.58,-1.19,0.14,1.45,0.09,1783,2019-03-25 16:00:58:469
-9.92,0.25,-0.32,0.26,-0.15,-0.49,0.26,1.72,0.0,1792,2019-03-25 16:00:58:478
-9.92,0.25,-0.32,0.26,-0.15,-0.49,0.26,1.72,0.0,1793,2019-03-25 16:00:58:479
-9.92,0.25,-0.32,0.26,-0.15,-0.49,0.26,1.72,0.0,1798,2019-03-25 16:00:58:484
-10.41,0.8,-2.28,-0.35,0.36,-1.86,0.21,1.73,0.01,1803,2019-03-25 16:00:58:489
-10.41,0.8,-2.28,-0.35,0.36,-1.86,0.21,1.73,0.01,1808,2019-03-25 16:00:58:494
-10.41,0.8,-2.28,-0.35,0.36,-1.86,0.21,1.73,0.01,1813,2019-03-25 16:00:58:499
-10.41,0.8,-2.28,-0.35,0.36,-1.86,0.21,1.73,0.01,1818,2019-03-25 16:00:58:504
-10.66,0.72,-1.92,-0.76,0.24,-1.02,0.01,1.06,-0.01,1825,2019-03-25 16:00:58:511
-10.66,0.72,-1.92,-0.76,0.24,-1.02,0.01,1.06,-0.01,1828,2019-03-25 16:00:58:514
-10.66,0.72,-1.92,-0.76,0.24,-1.02,0.01,1.06,-0.01,1833,2019-03-25 16:00:58:519
-10.66,0.72,-1.92,-0.76,0.24,-1.02,0.01,1.06,-0.01,1838,2019-03-25 16:00:58:524
-10.66,0.72,-1.92,-0.76,0.24,-1.02,0.01,1.06,-0.01,1843,2019-03-25 16:00:58:529
-10.56,0.52,-0.87,-0.77,-0.02,0.29,-0.02,0.45,0.01,1848,2019-03-25 16:00:58:534
-10.56,0.52,-0.87,-0.77,-0.02,0.29,-0.02,0.45,0.01,1853,2019-03-25 16:00:58:539
-10.56,0.52,-0.87,-0.77,-0.02,0.29,-0.02,0.45,0.01,1858,2019-03-25 16:00:58:544
-10.56,0.52,-0.87,-0.77,-0.02,0.29,-0.02,0.45,0.01,1863,2019-03-25 16:00:58:549
-10.53,0.4,-1.2,-0.72,-0.13,0.17,0.08,0.15,0.05,1868,2019-03-25 16:00:58:554
-10.53,0.4,-1.2,-0.72,-0.13,0.17,0.08,0.15,0.05,1873,2019-03-25 16:00:58:559
-10.53,0.4,-1.2,-0.72,-0.13,0.17,0.08,0.15,0.05,1878,2019-03-25 16:00:58:564
-10.53,0.4,-1.2,-0.72,-0.13,0.17,0.08,0.15,0.05,1885,2019-03-25 16:00:58:571
-10.53,0.4,-1.2,-0.72,-0.13,0.17,0.08,0.15,0.05,1888,2019-03-25 16:00:58:574
-10.24,0.36,-1.93,-0.72,-0.13,0.17,0.08,0.0,0.09,1893,2019-03-25 16:00:58:579
-10.24,0.36,-1.93,-0.4,-0.19,-0.41,0.08,0.0,0.09,1901,2019-03-25 16:00:58:587
-10.24,0.36,-1.93,-0.4,-0.19,-0.41,0.08,0.0,0.09,1903,2019-03-25 16:00:58:589
-10.24,0.36,-1.93,-0.4,-0.19,-0.41,0.08,0.0,0.09,1909,2019-03-25 16:00:58:595
-10.24,0.36,-1.93,-0.4,-0.19,-0.41,0.08,0.0,0.09,1913,2019-03-25 16:00:58:599
-9.83,0.32,-1.62,0.05,-0.24,-0.04,-0.02,-0.05,0.1,1919,2019-03-25 16:00:58:605
-9.83,0.32,-1.62,0.05,-0.24,-0.04,-0.02,-0.05,0.1,1923,2019-03-25 16:00:58:609
-9.83,0.32,-1.62,0.05,-0.24,-0.04,-0.02,-0.05,0.1,1928,2019-03-25 16:00:58:614
-9.83,0.32,-1.62,0.05,-0.24,-0.04,-0.02,-0.05,0.1,1933,2019-03-25 16:00:58:619
-9.17,0.69,-0.79,0.71,0.08,0.65,-0.05,-0.11,0.08,1939,2019-03-25 16:00:58:625
-9.17,0.69,-0.79,0.71,0.08,0.65,-0.05,-0.11,0.08,1943,2019-03-25 16:00:58:629
-9.17,0.69,-0.79,0.71,0.08,0.65,-0.05,-0.11,0.08,1948,2019-03-25 16:00:58:634
-9.36,0.71,-0.17,0.56,0.12,1.07,-0.08,-0.13,-0.04,1953,2019-03-25 16:00:58:639
-9.36,0.71,-0.17,0.56,0.12,1.07,-0.08,-0.13,-0.04,1960,2019-03-25 16:00:58:646
-9.36,0.71,-0.17,0.56,0.12,1.07,-0.08,-0.13,-0.04,1964,2019-03-25 16:00:58:650
-9.36,0.71,-0.17,0.56,0.12,1.07,-0.08,-0.13,-0.04,1968,2019-03-25 16:00:58:654
-9.86,0.63,-0.07,0.19,0.08,0.7,0.02,-0.21,-0.1,1973,2019-03-25 16:00:58:659
-9.86,0.63,-0.07,0.19,0.08,0.7,0.02,-0.21,-0.1,1978,2019-03-25 16:00:58:664
-9.86,0.63,-0.07,0.19,0.08,0.7,0.02,-0.21,-0.1,1983,2019-03-25 16:00:58:669
-10.12,0.53,-0.27,-0.02,-0.01,0.48,0.06,-0.2,-0.08,1988,2019-03-25 16:00:58:674
-10.12,0.53,-0.27,-0.02,-0.01,0.48,0.06,-0.2,-0.08,1994,2019-03-25 16:00:58:680
-10.12,0.53,-0.27,-0.02,-0.01,0.48,0.06,-0.2,-0.08,1999,2019-03-25 16:00:58:685
-10.49,0.57,-0.4,-0.38,0.04,0.19,0.05,-0.15,-0.07,2004,2019-03-25 16:00:58:690
-10.49,0.57,-0.4,-0.38,0.04,0.19,0.05,-0.15,-0.07,2009,2019-03-25 16:00:58:695
-10.49,0.57,-0.4,-0.38,0.04,0.19,0.05,-0.15,-0.07,2013,2019-03-25 16:00:58:699
-10.49,0.57,-0.4,-0.38,0.04,0.19,0.05,-0.15,-0.07,2018,2019-03-25 16:00:58:704
-10.49,0.57,-0.4,-0.38,0.04,0.19,0.05,-0.15,-0.07,2023,2019-03-25 16:00:58:709
-10.46,0.27,-0.43,-0.38,0.04,0.19,0.04,-0.03,-0.06,2028,2019-03-25 16:00:58:714
-10.46,0.27,-0.43,-0.38,-0.16,-0.04,0.04,-0.03,-0.06,2033,2019-03-25 16:00:58:719
-10.46,0.27,-0.43,-0.38,-0.16,-0.04,0.04,-0.03,-0.06,2038,2019-03-25 16:00:58:724
-10.46,0.27,-0.43,-0.38,-0.16,-0.04,0.04,-0.03,-0.06,2043,2019-03-25 16:00:58:729
-10.37,0.55,-0.59,-0.34,0.03,-0.12,0.06,0.06,-0.04,2048,2019-03-25 16:00:58:734
-10.37,0.55,-0.59,-0.34,0.03,-0.12,0.06,0.06,-0.04,2053,2019-03-25 16:00:58:739
-10.37,0.55,-0.59,-0.34,0.03,-0.12,0.06,0.06,-0.04,2059,2019-03-25 16:00:58:745
-10.09,0.52,-0.8,-0.06,0.12,-0.33,0.09,0.02,-0.05,2064,2019-03-25 16:00:58:750
-10.09,0.52,-0.8,-0.06,0.12,-0.33,0.09,0.02,-0.05,2068,2019-03-25 16:00:58:754
-10.09,0.52,-0.8,-0.06,0.12,-0.33,0.09,0.02,-0.05,2073,2019-03-25 16:00:58:759
-9.86,0.5,-0.86,-0.06,0.12,-0.33,0.09,0.02,-0.05,2078,2019-03-25 16:00:58:764
-9.86,0.5,-0.86,0.1,0.11,-0.39,0.1,-0.08,-0.07,2083,2019-03-25 16:00:58:769
-9.86,0.5,-0.86,0.1,0.11,-0.39,0.1,-0.08,-0.07,2088,2019-03-25 16:00:58:774
-9.86,0.5,-0.86,0.1,0.11,-0.39,0.1,-0.08,-0.07,2093,2019-03-25 16:00:58:779
-9.86,0.5,-0.86,0.1,0.11,-0.39,0.1,-0.08,-0.07,2098,2019-03-25 16:00:58:784
-9.86,0.5,-0.86,0.1,0.11,-0.39,0.1,-0.08,-0.07,2103,2019-03-25 16:00:58:789
-10.12,0.44,-0.86,-0.14,0.05,-0.41,0.09,-0.19,-0.13,2109,2019-03-25 16:00:58:795
-10.12,0.44,-0.86,-0.14,0.05,-0.41,0.09,-0.19,-0.13,2116,2019-03-25 16:00:58:802
-10.12,0.44,-0.86,-0.14,0.05,-0.41,0.09,-0.19,-0.13,2118,2019-03-25 16:00:58:804
-10.12,0.44,-0.86,-0.14,0.05,-0.41,0.09,-0.19,-0.13,2123,2019-03-25 16:00:58:809
-10.12,0.44,-0.86,-0.14,0.05,-0.41,0.09,-0.19,-0.13,2129,2019-03-25 16:00:58:815
-10.34,0.17,-0.91,-0.27,-0.14,-0.45,0.06,-0.26,-0.19,2134,2019-03-25 16:00:58:820
-10.34,0.17,-0.91,-0.27,-0.14,-0.45,0.06,-0.26,-0.19,2138,2019-03-25 16:00:58:824
-10.34,0.17,-0.91,-0.27,-0.14,-0.45,0.06,-0.26,-0.19,2144,2019-03-25 16:00:58:830
-10.7,-0.09,-1.05,-0.37,-0.21,-0.5,0.01,-0.25,-0.2,2148,2019-03-25 16:00:58:834
-10.7,-0.09,-1.05,-0.37,-0.21,-0.5,0.01,-0.25,-0.2,2153,2019-03-25 16:00:58:839
-10.7,-0.09,-1.05,-0.37,-0.21,-0.5,0.01,-0.25,-0.2,2159,2019-03-25 16:00:58:845
-10.82,0.03,-0.86,-0.52,-0.13,-0.26,-0.06,-0.34,-0.14,2165,2019-03-25 16:00:58:851
-10.82,0.03,-0.86,-0.52,-0.13,-0.26,-0.06,-0.34,-0.14,2168,2019-03-25 16:00:58:854
-10.82,0.03,-0.86,-0.52,-0.13,-0.26,-0.06,-0.34,-0.14,2173,2019-03-25 16:00:58:859
-10.82,0.03,-0.86,-0.52,-0.13,-0.26,-0.06,-0.34,-0.14,2178,2019-03-25 16:00:58:864
-10.54,0.65,-0.25,-0.19,0.46,0.26,-0.07,-0.56,-0.05,2185,2019-03-25 16:00:58:871
-10.54,0.65,-0.25,-0.19,0.46,0.26,-0.07,-0.56,-0.05,2188,2019-03-25 16:00:58:874
-10.54,0.65,-0.25,-0.19,0.46,0.26,-0.07,-0.56,-0.05,2194,2019-03-25 16:00:58:880
-10.54,0.65,-0.25,-0.19,0.46,0.26,-0.07,-0.56,-0.05,2198,2019-03-25 16:00:58:884
-10.39,0.28,0.0,-0.03,0.08,0.4,-0.05,-0.65,-0.03,2203,2019-03-25 16:00:58:889
-10.39,0.28,0.0,-0.03,0.08,0.4,-0.05,-0.65,-0.03,2208,2019-03-25 16:00:58:894
-10.39,0.28,0.0,-0.03,0.08,0.4,-0.05,-0.65,-0.03,2213,2019-03-25 16:00:58:899
-10.39,0.28,0.0,-0.03,0.08,0.4,-0.05,-0.65,-0.03,2218,2019-03-25 16:00:58:904
-10.66,0.31,0.11,-0.27,0.08,0.34,-0.01,-0.84,-0.01,2223,2019-03-25 16:00:58:909
-10.66,0.31,0.11,-0.27,0.08,0.34,-0.01,-0.84,-0.01,2228,2019-03-25 16:00:58:914
-10.66,0.31,0.11,-0.27,0.08,0.34,-0.01,-0.84,-0.01,2234,2019-03-25 16:00:58:920
-10.66,0.31,0.11,-0.27,0.08,0.34,-0.01,-0.84,-0.01,2238,2019-03-25 16:00:58:924
-10.31,0.24,0.08,-0.27,0.08,0.34,0.07,-1.04,0.07,2243,2019-03-25 16:00:58:929
-10.31,0.24,0.08,0.06,0.0,0.1,0.07,-1.04,0.07,2248,2019-03-25 16:00:58:934
-10.31,0.24,0.08,0.06,0.0,0.1,0.07,-1.04,0.07,2253,2019-03-25 16:00:58:939
-10.31,0.24,0.08,0.06,0.0,0.1,0.07,-1.04,0.07,2258,2019-03-25 16:00:58:944
-10.31,0.24,0.08,0.06,0.0,0.1,0.07,-1.04,0.07,2263,2019-03-25 16:00:58:949
-10.18,0.19,-0.15,0.19,-0.04,-0.28,0.1,-1.15,0.1,2268,2019-03-25 16:00:58:954
-10.18,0.19,-0.15,0.19,-0.04,-0.28,0.1,-1.15,0.1,2273,2019-03-25 16:00:58:959
-10.18,0.19,-0.15,0.19,-0.04,-0.28,0.1,-1.15,0.1,2277,2019-03-25 16:00:58:963
-10.02,0.31,-0.15,0.37,0.06,-0.44,0.05,-1.45,0.13,2283,2019-03-25 16:00:58:969
-10.02,0.31,-0.15,0.37,0.06,-0.44,0.05,-1.45,0.13,2288,2019-03-25 16:00:58:974
-10.02,0.31,-0.15,0.37,0.06,-0.44,0.05,-1.45,0.13,2293,2019-03-25 16:00:58:979
-10.02,0.31,-0.15,0.37,0.06,-0.44,0.05,-1.45,0.13,2299,2019-03-25 16:00:58:985
-10.02,0.31,-0.15,0.37,0.06,-0.44,0.05,-1.45,0.13,2304,2019-03-25 16:00:58:990
-10.02,0.31,-0.15,0.37,0.06,-0.44,0.05,-1.45,0.13,2309,2019-03-25 16:00:58:995
-10.02,0.31,-0.15,0.37,0.06,-0.44,0.05,-1.45,0.13,2313,2019-03-25 16:00:58:999
-10.02,1.02,0.26,0.33,0.69,-0.34,-0.05,-1.98,0.16,2318,2019-03-25 16:00:59:004
-10.02,1.02,0.26,0.33,0.69,-0.34,-0.05,-1.98,0.16,2323,2019-03-25 16:00:59:009
-10.02,1.02,0.26,0.33,0.69,-0.34,-0.05,-1.98,0.16,2329,2019-03-25 16:00:59:015
-10.26,0.63,0.82,0.04,0.21,-0.25,-0.18,-2.67,0.18,2333,2019-03-25 16:00:59:019
-10.26,0.63,0.82,0.04,0.21,-0.25,-0.18,-2.67,0.18,2338,2019-03-25 16:00:59:024
-10.16,0.99,1.01,0.04,0.21,-0.25,0.28,-3.69,0.32,2344,2019-03-25 16:00:59:030
-10.16,0.99,1.01,0.04,0.21,-0.25,0.28,-3.69,0.32,2348,2019-03-25 16:00:59:034
-10.16,0.99,1.01,0.04,0.21,-0.25,0.28,-3.69,0.32,2353,2019-03-25 16:00:59:039
-10.16,0.99,1.01,0.04,0.21,-0.25,0.28,-3.69,0.32,2358,2019-03-25 16:00:59:044
-10.16,0.99,1.01,0.04,0.21,-0.25,0.28,-3.69,0.32,2363,2019-03-25 16:00:59:049
-9.58,0.77,2.05,0.29,0.03,-0.52,0.85,-5.19,0.4,2369,2019-03-25 16:00:59:055
-9.58,0.77,2.05,0.29,0.03,-0.52,0.85,-5.19,0.4,2373,2019-03-25 16:00:59:059
-9.58,0.77,2.05,0.29,0.03,-0.52,0.85,-5.19,0.4,2378,2019-03-25 16:00:59:064
-9.14,0.51,3.5,0.3,-0.31,-0.07,0.71,-5.83,0.37,2387,2019-03-25 16:00:59:073
-9.14,0.51,3.5,0.3,-0.31,-0.07,0.71,-5.83,0.37,2388,2019-03-25 16:00:59:074
-9.14,0.51,3.5,0.3,-0.31,-0.07,0.71,-5.83,0.37,2393,2019-03-25 16:00:59:079
-9.14,0.51,3.5,0.3,-0.31,-0.07,0.71,-5.83,0.37,2397,2019-03-25 16:00:59:083
-7.62,0.68,4.65,1.18,-0.24,0.07,0.31,-6.16,0.4,2403,2019-03-25 16:00:59:089
-7.62,0.68,4.65,1.18,-0.24,0.07,0.31,-6.16,0.4,2408,2019-03-25 16:00:59:094
-7.62,0.68,4.65,1.18,-0.24,0.07,0.31,-6.16,0.4,2416,2019-03-25 16:00:59:102
-7.62,0.68,4.65,1.18,-0.24,0.07,0.31,-6.16,0.4,2418,2019-03-25 16:00:59:104
-6.14,0.07,5.76,1.73,-0.84,0.21,-0.24,-6.38,0.39,2423,2019-03-25 16:00:59:109
-6.14,0.07,5.76,1.73,-0.84,0.21,-0.24,-6.38,0.39,2428,2019-03-25 16:00:59:114
-6.14,0.07,5.76,1.73,-0.84,0.21,-0.24,-6.38,0.39,2437,2019-03-25 16:00:59:123
-6.14,0.07,5.76,1.73,-0.84,0.21,-0.24,-6.38,0.39,2438,2019-03-25 16:00:59:124
-5.16,0.33,8.58,1.61,-0.53,1.97,-0.45,-6.7,0.53,2444,2019-03-25 16:00:59:130
-5.16,0.33,8.58,1.61,-0.53,1.97,-0.45,-6.7,0.53,2448,2019-03-25 16:00:59:134
-5.16,0.33,8.58,1.61,-0.53,1.97,-0.45,-6.7,0.53,2455,2019-03-25 16:00:59:141
-5.16,0.33,8.58,1.61,-0.53,1.97,-0.45,-6.7,0.53,2458,2019-03-25 16:00:59:144
-5.16,0.33,8.58,1.61,-0.53,1.97,-0.45,-6.7,0.53,2463,2019-03-25 16:00:59:149
-5.04,0.77,9.11,0.63,-0.1,1.5,-0.45,-5.96,0.53,2468,2019-03-25 16:00:59:154
-5.04,0.77,9.11,0.63,-0.1,1.5,-0.45,-5.96,0.53,2473,2019-03-25 16:00:59:159
-5.04,0.77,9.11,0.63,-0.1,1.5,-0.45,-5.96,0.53,2478,2019-03-25 16:00:59:164
-4.41,0.47,9.45,0.4,-0.35,1.13,-0.45,-4.32,0.39,2483,2019-03-25 16:00:59:169
-4.41,0.47,9.45,0.4,-0.35,1.13,-0.45,-4.32,0.39,2488,2019-03-25 16:00:59:174
-4.41,0.47,9.45,0.4,-0.35,1.13,-0.45,-4.32,0.39,2495,2019-03-25 16:00:59:181
-4.41,0.47,9.45,0.4,-0.35,1.13,-0.45,-4.32,0.39,2498,2019-03-25 16:00:59:184
-4.19,0.01,8.42,-0.03,-0.63,-0.32,-0.56,-3.26,0.02,2504,2019-03-25 16:00:59:190
-4.19,0.01,8.42,-0.03,-0.63,-0.32,-0.56,-3.26,0.02,2508,2019-03-25 16:00:59:194
-4.19,0.01,8.42,-0.03,-0.63,-0.32,-0.56,-3.26,0.02,2514,2019-03-25 16:00:59:200
-4.19,0.01,8.42,-0.03,-0.63,-0.32,-0.56,-3.26,0.02,2518,2019-03-25 16:00:59:204
-4.19,0.01,8.42,-0.03,-0.63,-0.32,-0.56,-3.26,0.02,2523,2019-03-25 16:00:59:209
-4.19,0.01,8.42,-0.03,-0.63,-0.32,-0.56,-3.26,0.02,2528,2019-03-25 16:00:59:214
-3.25,0.25,9.48,0.2,-0.15,0.36,-0.91,-3.51,0.02,2534,2019-03-25 16:00:59:220
-3.25,0.25,9.48,0.2,-0.15,0.36,-0.91,-3.51,0.02,2538,2019-03-25 16:00:59:224
-3.25,0.25,9.48,0.2,-0.15,0.36,-1.02,-3.68,0.25,2543,2019-03-25 16:00:59:229
-1.46,1.09,12.14,0.75,0.91,2.14,-1.02,-3.68,0.25,2548,2019-03-25 16:00:59:234
-1.46,1.09,12.14,0.75,0.91,2.14,-1.02,-3.68,0.25,2553,2019-03-25 16:00:59:239
-1.46,1.09,12.14,0.75,0.91,2.14,-1.02,-3.68,0.25,2560,2019-03-25 16:00:59:246
-1.46,1.09,12.14,0.75,0.91,2.14,-1.02,-3.68,0.25,2564,2019-03-25 16:00:59:250
-1.41,0.88,11.69,0.5,0.71,1.47,-0.36,-2.35,0.13,2569,2019-03-25 16:00:59:255
-1.41,0.88,11.69,0.5,0.71,1.47,-0.36,-2.35,0.13,2573,2019-03-25 16:00:59:259
-1.41,0.88,11.69,0.5,0.71,1.47,-0.36,-2.35,0.13,2578,2019-03-25 16:00:59:264
-1.59,0.2,10.8,-0.08,-0.01,0.3,0.42,-1.29,-0.02,2585,2019-03-25 16:00:59:271
-1.59,0.2,10.8,-0.08,-0.01,0.3,0.42,-1.29,-0.02,2588,2019-03-25 16:00:59:274
-1.59,0.2,10.8,-0.08,-0.01,0.3,0.42,-1.29,-0.02,2593,2019-03-25 16:00:59:279
-1.59,0.2,10.8,-0.08,-0.01,0.3,0.42,-1.29,-0.02,2598,2019-03-25 16:00:59:284
-1.93,0.13,8.26,-0.64,-0.18,-2.24,0.72,-1.02,-0.01,2603,2019-03-25 16:00:59:289
-1.93,0.13,8.26,-0.64,-0.18,-2.24,0.72,-1.02,-0.01,2608,2019-03-25 16:00:59:294
-1.93,0.13,8.26,-0.64,-0.18,-2.24,0.72,-1.02,-0.01,2616,2019-03-25 16:00:59:302
-1.93,0.13,8.26,-0.64,-0.18,-2.24,0.72,-1.02,-0.01,2618,2019-03-25 16:00:59:304
-1.93,0.13,8.26,-0.64,-0.18,-2.24,0.72,-1.02,-0.01,2623,2019-03-25 16:00:59:309
-1.93,0.13,8.26,-0.64,-0.18,-2.24,0.72,-1.02,-0.01,2628,2019-03-25 16:00:59:314
-2.26,0.17,8.85,-1.11,-0.24,-1.62,0.32,-1.74,-0.07,2636,2019-03-25 16:00:59:322
-2.26,0.17,8.85,-1.11,-0.24,-1.62,0.32,-1.74,-0.07,2638,2019-03-25 16:00:59:324
-2.26,0.17,8.85,-1.11,-0.24,-1.62,0.32,-1.74,-0.07,2643,2019-03-25 16:00:59:329
-1.74,0.65,10.21,-1.08,0.14,0.02,0.13,-2.09,-0.05,2648,2019-03-25 16:00:59:334
-1.74,0.65,10.21,-1.08,0.14,0.02,0.13,-2.09,-0.05,2653,2019-03-25 16:00:59:339
-1.74,0.65,10.21,-1.08,0.14,0.02,0.13,-2.09,-0.05,2658,2019-03-25 16:00:59:344
-1.51,0.64,10.14,-0.78,0.1,-0.35,0.22,-1.69,-0.05,2663,2019-03-25 16:00:59:349
-1.51,0.64,10.14,-0.78,0.1,-0.35,0.22,-1.69,-0.05,2669,2019-03-25 16:00:59:355
-1.51,0.64,10.14,-0.78,0.1,-0.35,0.22,-1.69,-0.05,2673,2019-03-25 16:00:59:359
-1.51,0.64,10.14,-0.78,0.1,-0.35,0.22,-1.69,-0.05,2678,2019-03-25 16:00:59:364
-1.18,0.31,9.66,-0.6,-0.28,-0.74,0.37,-1.14,-0.02,2685,2019-03-25 16:00:59:371
-1.18,0.31,9.66,-0.6,-0.28,-0.74,0.37,-1.14,-0.02,2688,2019-03-25 16:00:59:374
-1.18,0.31,9.66,-0.6,-0.28,-0.74,0.37,-1.14,-0.02,2694,2019-03-25 16:00:59:380
-1.18,0.31,9.66,-0.6,-0.28,-0.74,0.37,-1.14,-0.02,2698,2019-03-25 16:00:59:384
-1.22,0.4,9.05,-0.77,-0.27,-1.28,0.31,-1.16,-0.02,2705,2019-03-25 16:00:59:391
-1.22,0.4,9.05,-0.77,-0.27,-1.28,0.31,-1.16,-0.02,2708,2019-03-25 16:00:59:394
-1.22,0.4,9.05,-0.77,-0.27,-1.28,0.31,-1.16,-0.02,2713,2019-03-25 16:00:59:399
-1.22,0.4,9.05,-0.77,-0.27,-1.28,0.31,-1.16,-0.02,2718,2019-03-25 16:00:59:404
-1.22,0.4,9.05,-0.77,-0.27,-1.28,0.31,-1.16,-0.02,2723,2019-03-25 16:00:59:409
-1.22,0.4,9.05,-0.77,-0.27,-1.28,0.31,-1.16,-0.02,2728,2019-03-25 16:00:59:414
-0.83,0.44,9.45,-0.57,-0.3,-0.82,0.15,-1.66,0.0,2735,2019-03-25 16:00:59:421
-0.83,0.44,9.45,-0.57,-0.3,-0.82,0.15,-1.66,0.0,2738,2019-03-25 16:00:59:424
-0.83,0.44,9.45,-0.57,-0.3,-0.82,0.15,-1.66,0.0,2744,2019-03-25 16:00:59:430
-0.02,0.72,10.03,-0.25,0.08,0.01,-0.08,-1.95,0.05,2748,2019-03-25 16:00:59:434
-0.02,0.72,10.03,-0.25,0.08,0.01,-0.08,-1.95,0.05,2753,2019-03-25 16:00:59:439
-0.02,0.72,10.03,-0.25,0.08,0.01,-0.08,-1.95,0.05,2758,2019-03-25 16:00:59:444
-0.02,0.72,10.03,-0.25,0.08,0.01,-0.08,-1.95,0.05,2763,2019-03-25 16:00:59:449
-0.02,0.72,10.03,-0.25,0.08,0.01,-0.08,-1.95,0.05,2768,2019-03-25 16:00:59:454
0.14,0.63,9.89,-0.05,0.04,0.06,-0.07,-1.78,0.07,2773,2019-03-25 16:00:59:459
0.14,0.63,9.89,-0.05,0.04,0.06,-0.07,-1.78,0.07,2778,2019-03-25 16:00:59:464
0.14,0.63,9.89,-0.05,0.04,0.06,-0.07,-1.78,0.07,2784,2019-03-25 16:00:59:470
0.14,0.63,9.89,-0.05,0.04,0.06,-0.07,-1.78,0.07,2788,2019-03-25 16:00:59:474
0.9,0.82,10.2,-0.05,0.04,0.06,-0.07,-1.78,0.07,2793,2019-03-25 16:00:59:479
0.9,0.82,10.2,0.49,0.25,0.52,-0.07,-1.28,0.14,2799,2019-03-25 16:00:59:485
0.9,0.82,10.2,0.49,0.25,0.52,-0.07,-1.28,0.14,2803,2019-03-25 16:00:59:489
0.9,0.82,10.2,0.49,0.25,0.52,-0.07,-1.28,0.14,2808,2019-03-25 16:00:59:494
0.9,0.82,10.2,0.49,0.25,0.52,-0.07,-1.28,0.14,2813,2019-03-25 16:00:59:499
0.87,0.93,11.11,0.31,0.31,1.25,0.0,-0.82,0.13,2818,2019-03-25 16:00:59:504
0.87,0.93,11.11,0.31,0.31,1.25,0.0,-0.82,0.13,2823,2019-03-25 16:00:59:509
0.96,0.83,10.65,0.31,0.31,1.25,0.0,-0.82,0.13,2829,2019-03-25 16:00:59:515
0.96,0.83,10.65,0.3,0.14,0.58,0.17,-0.35,0.11,2833,2019-03-25 16:00:59:519
0.96,0.83,10.65,0.3,0.14,0.58,0.17,-0.35,0.11,2838,2019-03-25 16:00:59:524
0.96,0.83,10.65,0.3,0.14,0.58,0.17,-0.35,0.11,2843,2019-03-25 16:00:59:529
1.12,0.98,12.68,0.2,0.08,1.55,0.33,-0.3,0.08,2849,2019-03-25 16:00:59:535
1.12,0.98,12.68,0.2,0.08,1.55,0.33,-0.3,0.08,2853,2019-03-25 16:00:59:539
1.12,0.98,12.68,0.2,0.08,1.55,0.33,-0.3,0.08,2858,2019-03-25 16:00:59:544
1.12,0.98,12.68,0.2,0.08,1.55,0.33,-0.3,0.08,2864,2019-03-25 16:00:59:550
0.89,0.89,13.13,0.02,0.03,2.73,0.7,-0.19,0.1,2868,2019-03-25 16:00:59:554
0.89,0.89,13.13,0.02,0.03,2.73,0.7,-0.19,0.1,2873,2019-03-25 16:00:59:559
0.89,0.89,13.13,0.02,0.03,2.73,0.7,-0.19,0.1,2879,2019-03-25 16:00:59:565
0.89,0.89,13.13,0.02,0.03,2.73,0.7,-0.19,0.1,2884,2019-03-25 16:00:59:570
0.89,0.89,13.13,0.02,0.03,2.73,0.7,-0.19,0.1,2888,2019-03-25 16:00:59:574
1.16,1.13,12.34,0.32,0.01,1.7,1.45,0.43,0.09,2893,2019-03-25 16:00:59:579
1.16,1.13,12.34,0.32,0.01,1.7,1.45,0.43,0.09,2898,2019-03-25 16:00:59:584
1.16,1.13,12.34,0.32,0.01,1.7,1.45,0.43,0.09,2906,2019-03-25 16:00:59:592
1.16,1.13,12.34,0.32,0.01,1.7,1.45,0.43,0.09,2909,2019-03-25 16:00:59:595
1.16,1.13,12.34,0.32,0.01,1.7,1.45,0.43,0.09,2914,2019-03-25 16:00:59:600
2.14,1.53,12.21,1.26,0.02,1.29,1.97,0.57,0.08,2918,2019-03-25 16:00:59:604
2.14,1.53,12.21,1.26,0.02,1.29,1.97,0.57,0.08,2923,2019-03-25 16:00:59:609
2.14,1.53,12.21,1.26,0.02,1.29,1.97,0.57,0.08,2928,2019-03-25 16:00:59:614
2.14,1.53,12.21,1.26,0.02,1.29,1.97,0.57,0.08,2936,2019-03-25 16:00:59:622
2.14,1.53,12.21,1.26,0.02,1.29,1.97,0.57,0.08,2938,2019-03-25 16:00:59:624
0.34,1.99,12.59,-0.47,-0.33,1.25,2.23,0.63,0.0,2944,2019-03-25 16:00:59:630
0.34,1.99,12.59,-0.47,-0.33,1.25,2.23,0.63,0.0,2948,2019-03-25 16:00:59:634
0.34,1.99,12.59,-0.47,-0.33,1.25,2.23,0.63,0.0,2954,2019-03-25 16:00:59:640
0.34,1.99,12.59,-0.47,-0.33,1.25,2.23,0.63,0.0,2958,2019-03-25 16:00:59:644
0.81,2.47,13.53,0.07,-0.25,1.95,2.4,0.6,0.21,2963,2019-03-25 16:00:59:649
0.81,2.47,13.53,0.07,-0.25,1.95,2.4,0.6,0.21,2968,2019-03-25 16:00:59:654
0.81,2.47,13.53,0.07,-0.25,1.95,2.4,0.6,0.21,2973,2019-03-25 16:00:59:659
0.81,2.47,13.53,0.07,-0.25,1.95,2.4,0.6,0.21,2978,2019-03-25 16:00:59:664
0.81,2.55,14.93,0.08,-0.63,3.01,2.93,0.22,0.28,2982,2019-03-25 16:00:59:668
0.81,2.55,14.93,0.08,-0.63,3.01,2.93,0.22,0.28,2988,2019-03-25 16:00:59:674
0.81,2.55,14.93,0.08,-0.63,3.01,2.93,0.22,0.28,2993,2019-03-25 16:00:59:679
0.81,2.55,14.93,0.08,-0.63,3.01,2.93,0.22,0.28,2998,2019-03-25 16:00:59:684
0.41,1.93,12.89,-0.27,-1.71,0.9,3.8,0.41,0.18,3005,2019-03-25 16:00:59:691
0.41,1.93,12.89,-0.27,-1.71,0.9,3.8,0.41,0.18,3009,2019-03-25 16:00:59:695
0.41,1.93,12.89,-0.27,-1.71,0.9,3.8,0.41,0.18,3014,2019-03-25 16:00:59:700
0.41,1.93,12.89,-0.27,-1.71,0.9,3.8,0.41,0.18,3018,2019-03-25 16:00:59:704
0.41,1.93,12.89,-0.27,-1.71,0.9,3.8,0.41,0.18,3023,2019-03-25 16:00:59:709
0.41,1.93,12.89,-0.27,-1.71,0.9,3.8,0.41,0.18,3028,2019-03-25 16:00:59:714
-0.09,2.1,10.62,-0.64,-2.02,-1.14,4.34,0.8,0.22,3033,2019-03-25 16:00:59:719
-0.09,2.1,10.62,-0.64,-2.02,-1.14,4.34,0.8,0.22,3038,2019-03-25 16:00:59:724
-0.09,2.1,10.62,-0.64,-2.02,-1.14,4.34,0.8,0.22,3043,2019-03-25 16:00:59:729
-1.0,2.9,9.21,-1.3,-1.72,-2.05,4.54,1.14,0.37,3048,2019-03-25 16:00:59:734
-1.0,2.9,9.21,-1.3,-1.72,-2.05,4.54,1.14,0.37,3056,2019-03-25 16:00:59:742
-1.0,2.9,9.21,-1.3,-1.72,-2.05,4.54,1.14,0.37,3058,2019-03-25 16:00:59:744
-1.0,2.9,9.21,-1.3,-1.72,-2.05,4.54,1.14,0.37,3063,2019-03-25 16:00:59:749
-0.82,4.51,6.64,-0.92,-0.64,-3.71,4.61,0.99,0.57,3068,2019-03-25 16:00:59:754
-0.82,4.51,6.64,-0.92,-0.64,-3.71,4.61,0.99,0.57,3073,2019-03-25 16:00:59:759
-0.82,4.51,6.64,-0.92,-0.64,-3.71,4.61,0.99,0.57,3078,2019-03-25 16:00:59:764
-0.82,4.51,6.64,-0.92,-0.64,-3.71,4.61,0.99,0.57,3085,2019-03-25 16:00:59:771
-0.82,4.51,6.64,-0.92,-0.64,-3.71,4.61,0.99,0.57,3088,2019-03-25 16:00:59:774
-0.04,5.5,5.08,-0.12,-0.18,-4.21,4.42,0.48,0.76,3093,2019-03-25 16:00:59:779
-0.04,5.5,5.08,-0.12,-0.18,-4.21,4.42,0.48,0.76,3101,2019-03-25 16:00:59:787
-0.04,5.5,5.08,-0.12,-0.18,-4.21,4.42,0.48,0.76,3103,2019-03-25 16:00:59:789
-0.04,5.5,5.08,-0.12,-0.18,-4.21,4.42,0.48,0.76,3108,2019-03-25 16:00:59:794
-0.04,5.5,5.08,-0.12,-0.18,-4.21,4.42,0.48,0.76,3113,2019-03-25 16:00:59:799
-0.11,5.69,4.95,-0.14,-0.38,-3.36,3.97,0.34,0.66,3119,2019-03-25 16:00:59:805
-0.11,5.69,4.95,-0.14,-0.38,-3.36,3.97,0.34,0.66,3123,2019-03-25 16:00:59:809
-0.11,5.69,4.95,-0.14,-0.38,-3.36,3.97,0.34,0.66,3128,2019-03-25 16:00:59:814
-0.11,5.69,4.95,-0.14,-0.38,-3.36,3.97,0.34,0.66,3135,2019-03-25 16:00:59:821
-0.11,5.69,4.95,-0.14,-0.38,-3.36,3.97,0.34,0.66,3138,2019-03-25 16:00:59:824
0.13,6.76,2.05,0.01,0.05,-4.01,3.7,0.3,0.4,3143,2019-03-25 16:00:59:829
0.13,6.76,2.05,0.01,0.05,-4.01,3.7,0.3,0.4,3147,2019-03-25 16:00:59:833
0.13,6.76,2.05,0.01,0.05,-4.01,3.7,0.3,0.4,3153,2019-03-25 16:00:59:839
0.13,6.76,2.05,0.01,0.05,-4.01,3.7,0.3,0.4,3160,2019-03-25 16:00:59:846
-0.72,6.25,1.52,-0.8,-0.62,-3.28,3.2,-0.02,0.31,3164,2019-03-25 16:00:59:850
-0.72,6.25,1.52,-0.8,-0.62,-3.28,3.2,-0.02,0.31,3169,2019-03-25 16:00:59:855
-0.72,6.25,1.52,-0.8,-0.62,-3.28,3.2,-0.02,0.31,3173,2019-03-25 16:00:59:859
-0.72,6.25,1.52,-0.8,-0.62,-3.28,3.2,-0.02,0.31,3178,2019-03-25 16:00:59:864
-0.72,6.25,1.52,-0.8,-0.62,-3.28,3.2,-0.02,0.31,3183,2019-03-25 16:00:59:869
-0.72,6.25,1.52,-0.8,-0.62,-3.28,3.2,-0.02,0.31,3188,2019-03-25 16:00:59:874
-0.89,6.29,1.71,-0.8,-0.62,-3.28,2.73,-0.04,0.41,3193,2019-03-25 16:00:59:879
-0.89,6.29,1.71,-0.86,-0.63,-1.81,2.73,-0.04,0.41,3198,2019-03-25 16:00:59:884
-0.89,6.29,1.71,-0.86,-0.63,-1.81,2.73,-0.04,0.41,3203,2019-03-25 16:00:59:889
-0.89,6.29,1.71,-0.86,-0.63,-1.81,2.73,-0.04,0.41,3211,2019-03-25 16:00:59:897
-0.89,6.29,1.71,-0.86,-0.63,-1.81,2.73,-0.04,0.41,3214,2019-03-25 16:00:59:900
0.25,6.74,2.07,0.28,-0.29,-0.37,2.4,0.27,0.44,3221,2019-03-25 16:00:59:907
0.25,6.74,2.07,0.28,-0.29,-0.37,2.4,0.27,0.44,3223,2019-03-25 16:00:59:909
0.25,6.74,2.07,0.28,-0.29,-0.37,2.4,0.27,0.44,3228,2019-03-25 16:00:59:914
0.52,7.8,1.2,0.45,0.51,-0.41,2.17,0.21,0.44,3234,2019-03-25 16:00:59:920
0.52,7.8,1.2,0.45,0.51,-0.41,2.17,0.21,0.44,3238,2019-03-25 16:00:59:924
0.52,7.8,1.2,0.45,0.51,-0.41,2.17,0.21,0.44,3243,2019-03-25 16:00:59:929
-0.19,8.31,-0.09,-0.07,0.55,-0.67,1.71,0.01,0.26,3248,2019-03-25 16:00:59:934
-0.19,8.31,-0.09,-0.07,0.55,-0.67,1.71,0.01,0.26,3254,2019-03-25 16:00:59:940
-0.19,8.31,-0.09,-0.07,0.55,-0.67,1.71,0.01,0.26,3258,2019-03-25 16:00:59:944
-0.19,8.31,-0.09,-0.07,0.55,-0.67,1.71,0.01,0.26,3263,2019-03-25 16:00:59:949
-0.16,8.61,-0.24,-0.44,0.89,-0.56,1.46,0.0,0.23,3268,2019-03-25 16:00:59:954
-0.16,8.61,-0.24,-0.44,0.89,-0.56,1.46,0.0,0.23,3273,2019-03-25 16:00:59:959
-0.16,8.61,-0.24,-0.44,0.89,-0.56,1.46,0.0,0.23,3279,2019-03-25 16:00:59:965
0.62,8.84,2.29,0.29,0.99,2.1,1.0,-0.09,0.28,3286,2019-03-25 16:00:59:972
0.62,8.84,2.29,0.29,0.99,2.1,1.0,-0.09,0.28,3289,2019-03-25 16:00:59:975
0.62,8.84,2.29,0.29,0.99,2.1,1.0,-0.09,0.28,3293,2019-03-25 16:00:59:979
0.62,8.84,2.29,0.29,0.99,2.1,1.0,-0.09,0.28,3298,2019-03-25 16:00:59:984
1.14,9.3,2.45,0.7,1.31,2.24,0.81,-0.1,0.31,3305,2019-03-25 16:00:59:991
1.14,9.3,2.45,0.7,1.31,2.24,0.81,-0.1,0.31,3308,2019-03-25 16:00:59:994
1.14,9.3,2.45,0.7,1.31,2.24,0.81,-0.1,0.31,3314,2019-03-25 16:01:00:000
1.14,9.3,2.45,0.7,1.31,2.24,0.81,-0.1,0.31,3320,2019-03-25 16:01:00:006
1.14,9.3,2.45,0.7,1.31,2.24,0.81,-0.1,0.31,3325,2019-03-25 16:01:00:011
1.14,9.3,2.45,0.7,1.31,2.24,0.81,-0.1,0.31,3328,2019-03-25 16:01:00:014
1.14,9.3,2.45,0.7,1.31,2.24,0.81,-0.1,0.31,3333,2019-03-25 16:01:00:019
1.35,10.11,1.9,0.86,1.88,1.7,0.92,-0.01,0.27,3340,2019-03-25 16:01:00:026
1.35,10.11,1.9,0.86,1.88,1.7,0.92,-0.01,0.27,3343,2019-03-25 16:01:00:029
1.35,10.11,1.9,0.86,1.88,1.7,0.92,-0.01,0.27,3348,2019-03-25 16:01:00:034
1.59,10.6,1.58,1.01,2.09,1.24,0.79,0.1,0.17,3356,2019-03-25 16:01:00:042
1.59,10.6,1.58,1.01,2.09,1.24,0.79,0.1,0.17,3363,2019-03-25 16:01:00:049
1.59,10.6,1.58,1.01,2.09,1.24,0.79,0.1,0.17,3363,2019-03-25 16:01:00:049
1.24,10.21,1.45,0.51,1.39,0.95,0.61,0.17,0.0,3371,2019-03-25 16:01:00:057
1.24,10.21,1.45,0.51,1.39,0.95,0.61,0.17,0.0,3374,2019-03-25 16:01:00:060
1.24,10.21,1.45,0.51,1.39,0.95,0.61,0.17,0.0,3378,2019-03-25 16:01:00:064
0.15,9.61,0.76,-0.64,0.49,0.17,0.46,0.15,-0.15,3386,2019-03-25 16:01:00:072
0.15,9.61,0.76,-0.64,0.49,0.17,0.46,0.15,-0.15,3388,2019-03-25 16:01:00:074
0.15,9.61,0.76,-0.64,0.49,0.17,0.46,0.15,-0.15,3394,2019-03-25 16:01:00:080
0.15,9.61,0.76,-0.64,0.49,0.17,0.46,0.15,-0.15,3398,2019-03-25 16:01:00:084
0.3,9.3,0.87,-0.45,-0.04,0.25,0.27,0.15,-0.12,3404,2019-03-25 16:01:00:090
0.3,9.3,0.87,-0.45,-0.04,0.25,0.27,0.15,-0.12,3408,2019-03-25 16:01:00:094
0.3,9.3,0.87,-0.45,-0.04,0.25,0.27,0.15,-0.12,3413,2019-03-25 16:01:00:099
0.3,9.3,0.87,-0.45,-0.04,0.25,0.27,0.15,-0.12,3418,2019-03-25 16:01:00:104
0.3,9.3,0.87,-0.45,-0.04,0.25,0.27,0.15,-0.12,3424,2019-03-25 16:01:00:110
0.3,9.3,0.87,-0.45,-0.04,0.25,0.27,0.15,-0.12,3428,2019-03-25 16:01:00:114
0.74,8.91,1.0,0.01,-0.54,0.3,0.12,0.0,-0.09,3433,2019-03-25 16:01:00:119
0.74,8.91,1.0,0.01,-0.54,0.3,0.12,0.0,-0.09,3438,2019-03-25 16:01:00:124
0.74,8.91,1.0,0.01,-0.54,0.3,0.12,0.0,-0.09,3444,2019-03-25 16:01:00:130
0.44,8.98,1.31,-0.09,-0.56,0.05,-0.02,0.04,-0.14,3448,2019-03-25 16:01:00:134
0.44,8.98,1.31,-0.09,-0.56,0.05,-0.02,0.04,-0.14,3453,2019-03-25 16:01:00:139
0.44,8.98,1.31,-0.09,-0.56,0.05,-0.02,0.04,-0.14,3459,2019-03-25 16:01:00:145
0.44,8.98,1.31,-0.09,-0.56,0.05,-0.02,0.04,-0.14,3463,2019-03-25 16:01:00:149
0.53,9.22,1.83,-0.21,-0.32,0.61,-0.15,0.04,-0.18,3468,2019-03-25 16:01:00:154
0.53,9.22,1.83,-0.21,-0.32,0.61,-0.15,0.04,-0.18,3473,2019-03-25 16:01:00:159
0.53,9.22,1.83,-0.21,-0.32,0.61,-0.15,0.04,-0.18,3478,2019-03-25 16:01:00:164
0.53,9.22,1.83,-0.21,-0.32,0.61,-0.15,0.04,-0.18,3483,2019-03-25 16:01:00:169
0.04,9.44,1.79,-0.63,-0.13,0.4,-0.24,0.22,-0.25,3488,2019-03-25 16:01:00:174
0.04,9.44,1.79,-0.63,-0.13,0.4,-0.24,0.22,-0.25,3493,2019-03-25 16:01:00:179
0.04,9.44,1.79,-0.63,-0.13,0.4,-0.24,0.22,-0.25,3498,2019-03-25 16:01:00:184
0.0,9.6,2.17,-0.53,0.0,0.73,-0.24,0.18,-0.22,3503,2019-03-25 16:01:00:189
0.0,9.6,2.17,-0.53,0.0,0.73,-0.24,0.18,-0.22,3509,2019-03-25 16:01:00:195
0.0,9.6,2.17,-0.53,0.0,0.73,-0.24,0.18,-0.22,3513,2019-03-25 16:01:00:199
0.0,9.6,2.17,-0.53,0.0,0.73,-0.24,0.18,-0.22,3518,2019-03-25 16:01:00:204
0.0,9.6,2.17,-0.53,0.0,0.73,-0.24,0.18,-0.22,3523,2019-03-25 16:01:00:209
0.0,9.6,2.17,-0.53,0.0,0.73,-0.24,0.18,-0.22,3528,2019-03-25 16:01:00:214
0.05,9.85,2.35,-0.53,0.0,0.73,-0.2,0.11,-0.15,3533,2019-03-25 16:01:00:219
0.05,9.85,2.35,-0.33,0.27,0.8,-0.2,0.11,-0.15,3538,2019-03-25 16:01:00:224
0.05,9.85,2.35,-0.33,0.27,0.8,-0.2,0.11,-0.15,3544,2019-03-25 16:01:00:230
0.2,9.85,2.39,0.05,0.41,1.04,-0.15,0.01,-0.11,3548,2019-03-25 16:01:00:234
0.2,9.85,2.39,0.05,0.41,1.04,-0.15,0.01,-0.11,3553,2019-03-25 16:01:00:239
0.2,9.85,2.39,0.05,0.41,1.04,-0.15,0.01,-0.11,3559,2019-03-25 16:01:00:245
0.2,9.85,2.39,0.05,0.41,1.04,-0.15,0.01,-0.11,3563,2019-03-25 16:01:00:249
0.19,9.62,2.06,0.05,0.18,0.26,-0.06,0.03,-0.07,3568,2019-03-25 16:01:00:254
0.19,9.62,2.06,0.05,0.18,0.26,-0.06,0.03,-0.07,3573,2019-03-25 16:01:00:259
0.19,9.62,2.06,0.05,0.18,0.26,-0.06,0.03,-0.07,3580,2019-03-25 16:01:00:266
0.19,9.62,2.06,0.05,0.18,0.26,-0.06,0.03,-0.07,3583,2019-03-25 16:01:00:269
0.35,9.43,1.76,0.19,0.01,-0.07,-0.08,0.01,-0.05,3588,2019-03-25 16:01:00:274
0.35,9.43,1.76,0.19,0.01,-0.07,-0.08,0.01,-0.05,3593,2019-03-25 16:01:00:279
0.35,9.43,1.76,0.19,0.01,-0.07,-0.08,0.01,-0.05,3598,2019-03-25 16:01:00:284
0.35,9.43,1.76,0.19,0.01,-0.07,-0.08,0.01,-0.05,3604,2019-03-25 16:01:00:290
0.48,9.23,2.04,0.28,-0.16,0.08,-0.15,-0.01,-0.05,3609,2019-03-25 16:01:00:295
0.48,9.23,2.04,0.28,-0.16,0.08,-0.15,-0.01,-0.05,3613,2019-03-25 16:01:00:299
0.48,9.23,2.04,0.28,-0.16,0.08,-0.15,-0.01,-0.05,3618,2019-03-25 16:01:00:304
0.48,9.23,2.04,0.28,-0.16,0.08,-0.15,-0.01,-0.05,3623,2019-03-25 16:01:00:309
0.48,9.23,2.04,0.28,-0.16,0.08,-0.15,-0.01,-0.05,3628,2019-03-25 16:01:00:314
0.26,9.1,2.06,0.08,-0.3,-0.03,-0.18,-0.01,-0.09,3633,2019-03-25 16:01:00:319
0.26,9.1,2.06,0.08,-0.3,-0.03,-0.18,-0.01,-0.09,3639,2019-03-25 16:01:00:325
0.26,9.1,2.06,0.08,-0.3,-0.03,-0.18,-0.01,-0.09,3643,2019-03-25 16:01:00:329
0.43,9.25,1.73,0.24,-0.18,-0.4,-0.18,0.05,-0.13,3648,2019-03-25 16:01:00:334
0.43,9.25,1.73,0.24,-0.18,-0.4,-0.18,0.05,-0.13,3653,2019-03-25 16:01:00:339
0.43,9.25,1.73,0.24,-0.18,-0.4,-0.18,0.05,-0.13,3658,2019-03-25 16:01:00:344
0.28,9.22,1.66,0.12,-0.23,-0.45,-0.3,0.21,-0.16,3663,2019-03-25 16:01:00:349
0.28,9.22,1.66,0.12,-0.23,-0.45,-0.3,0.21,-0.16,3668,2019-03-25 16:01:00:354
0.28,9.22,1.66,0.12,-0.23,-0.45,-0.3,0.21,-0.16,3673,2019-03-25 16:01:00:359
0.28,9.22,1.66,0.12,-0.23,-0.45,-0.3,0.21,-0.16,3678,2019-03-25 16:01:00:364
0.34,9.42,2.36,0.17,-0.02,0.18,-0.42,0.17,-0.18,3683,2019-03-25 16:01:00:369
0.34,9.42,2.36,0.17,-0.02,0.18,-0.42,0.17,-0.18,3688,2019-03-25 16:01:00:374
0.34,9.42,2.36,0.17,-0.02,0.18,-0.42,0.17,-0.18,3693,2019-03-25 16:01:00:379
0.34,9.42,2.36,0.06,-0.03,0.38,-0.48,0.13,-0.19,3698,2019-03-25 16:01:00:384
0.05,9.32,2.3,0.06,-0.03,0.38,-0.48,0.13,-0.19,3703,2019-03-25 16:01:00:389
0.05,9.32,2.3,0.06,-0.03,0.38,-0.48,0.13,-0.19,3708,2019-03-25 16:01:00:394
0.05,9.32,2.3,0.06,-0.03,0.38,-0.48,0.13,-0.19,3713,2019-03-25 16:01:00:399
0.05,9.32,2.3,0.06,-0.03,0.38,-0.48,0.13,-0.19,3718,2019-03-25 16:01:00:404
-0.16,9.04,1.34,-0.27,-0.28,-0.93,-0.56,0.19,-0.27,3723,2019-03-25 16:01:00:409
-0.16,9.04,1.34,-0.27,-0.28,-0.93,-0.56,0.19,-0.27,3728,2019-03-25 16:01:00:414
-0.5,8.98,0.93,-0.27,-0.28,-0.93,-0.64,0.17,-0.27,3733,2019-03-25 16:01:00:419
-0.5,8.98,0.93,-0.27,-0.28,-0.93,-0.64,0.17,-0.27,3738,2019-03-25 16:01:00:424
-0.5,8.98,0.93,-0.27,-0.28,-0.93,-0.64,0.17,-0.27,3743,2019-03-25 16:01:00:429
-0.6,8.94,1.05,-0.6,-0.26,-1.14,-0.78,0.16,-0.25,3748,2019-03-25 16:01:00:434
-0.6,8.94,1.05,-0.6,-0.26,-1.14,-0.78,0.16,-0.25,3753,2019-03-25 16:01:00:439
-0.6,8.94,1.05,-0.6,-0.26,-1.14,-0.78,0.16,-0.25,3758,2019-03-25 16:01:00:444
-0.6,8.94,1.05,-0.6,-0.26,-1.14,-0.78,0.16,-0.25,3763,2019-03-25 16:01:00:449
-0.11,8.89,0.98,-0.06,-0.19,-1.22,-1.12,0.19,-0.16,3768,2019-03-25 16:01:00:454
-0.11,8.89,0.98,-0.06,-0.19,-1.22,-1.12,0.19,-0.16,3773,2019-03-25 16:01:00:459
-0.11,8.89,0.98,-0.06,-0.19,-1.22,-1.12,0.19,-0.16,3778,2019-03-25 16:01:00:464
-1.03,8.04,0.47,-0.87,-0.87,-1.81,-1.47,0.13,-0.18,3783,2019-03-25 16:01:00:469
-1.03,8.04,0.47,-0.87,-0.87,-1.81,-1.47,0.13,-0.18,3788,2019-03-25 16:01:00:474
-1.03,8.04,0.47,-0.87,-0.87,-1.81,-1.47,0.13,-0.18,3793,2019-03-25 16:01:00:479
-1.03,8.04,0.47,-0.87,-0.87,-1.81,-1.47,0.13,-0.18,3798,2019-03-25 16:01:00:484
-1.5,7.31,0.55,-1.16,-1.35,-1.81,-1.96,0.0,-0.17,3803,2019-03-25 16:01:00:489
-1.5,7.31,0.55,-1.16,-1.35,-1.81,-1.96,0.0,-0.17,3808,2019-03-25 16:01:00:494
-1.5,7.31,0.55,-1.16,-1.35,-1.81,-1.96,0.0,-0.17,3813,2019-03-25 16:01:00:499
-1.5,7.31,0.55,-1.16,-1.35,-1.81,-1.96,0.0,-0.17,3818,2019-03-25 16:01:00:504
-1.5,7.31,0.55,-1.16,-1.35,-1.81,-1.96,0.0,-0.17,3823,2019-03-25 16:01:00:509
-1.5,7.31,0.55,-1.16,-1.35,-1.81,-1.96,0.0,-0.17,3828,2019-03-25 16:01:00:514
-1.21,6.78,1.42,-0.71,-1.54,-1.13,-2.68,0.13,-0.08,3833,2019-03-25 16:01:00:519
-1.21,6.78,1.42,-0.71,-1.54,-1.13,-2.68,0.13,-0.08,3838,2019-03-25 16:01:00:524
-1.21,6.78,1.42,-0.71,-1.54,-1.13,-2.68,0.13,-0.08,3843,2019-03-25 16:01:00:529
-1.21,6.78,1.42,-0.71,-1.54,-1.13,-2.68,0.13,-0.08,3848,2019-03-25 16:01:00:534
-0.37,6.28,1.77,0.2,-1.58,-1.16,-3.39,0.32,0.0,3853,2019-03-25 16:01:00:539
-0.37,6.28,1.77,0.2,-1.58,-1.16,-3.39,0.32,0.0,3858,2019-03-25 16:01:00:544
-0.37,6.28,1.77,0.2,-1.58,-1.16,-3.39,0.32,0.0,3863,2019-03-25 16:01:00:549
-0.37,6.28,1.77,0.2,-1.58,-1.16,-3.39,0.32,0.0,3868,2019-03-25 16:01:00:554
-0.37,6.28,1.77,0.2,-1.58,-1.16,-3.39,0.32,0.0,3873,2019-03-25 16:01:00:559
-0.37,6.28,1.77,0.2,-1.58,-1.16,-3.39,0.32,0.0,3878,2019-03-25 16:01:00:564
0.13,6.24,2.94,0.73,-1.07,-0.51,-4.01,0.27,-0.07,3883,2019-03-25 16:01:00:569
0.13,6.24,2.94,0.73,-1.07,-0.51,-4.01,0.27,-0.07,3888,2019-03-25 16:01:00:574
0.13,6.24,2.94,0.73,-1.07,-0.51,-4.01,0.27,-0.07,3893,2019-03-25 16:01:00:579
0.13,6.24,2.94,0.73,-1.07,-0.51,-4.01,0.27,-0.07,3898,2019-03-25 16:01:00:584
-0.55,5.78,6.84,0.19,-0.13,2.08,-5.06,0.36,-0.48,3903,2019-03-25 16:01:00:589
-0.55,5.78,6.84,0.19,-0.13,2.08,-5.06,0.36,-0.48,3907,2019-03-25 16:01:00:593
-0.55,5.78,6.84,0.19,-0.13,2.08,-5.06,0.36,-0.48,3913,2019-03-25 16:01:00:599
-0.55,5.78,6.84,-0.25,-0.25,3.47,-5.09,0.3,-0.63,3918,2019-03-25 16:01:00:604
-0.55,5.78,6.84,-0.25,-0.25,3.47,-5.09,0.3,-0.63,3923,2019-03-25 16:01:00:609
-0.55,5.78,6.84,-0.25,-0.25,3.47,-5.09,0.3,-0.63,3928,2019-03-25 16:01:00:614
-1.53,4.57,10.2,-0.59,-0.49,4.4,-5.11,0.11,-0.69,3933,2019-03-25 16:01:00:619
-1.53,4.57,10.2,-0.59,-0.49,4.4,-5.11,0.11,-0.69,3938,2019-03-25 16:01:00:624
-1.53,4.57,10.2,-0.59,-0.49,4.4,-5.11,0.11,-0.69,3943,2019-03-25 16:01:00:629
-1.53,4.57,10.2,-0.59,-0.49,4.4,-5.11,0.11,-0.69,3949,2019-03-25 16:01:00:635
-0.98,3.65,11.72,0.0,-0.49,4.76,-4.72,-0.3,-0.41,3953,2019-03-25 16:01:00:639
-0.98,3.65,11.72,0.0,-0.49,4.76,-4.72,-0.3,-0.41,3958,2019-03-25 16:01:00:644
-0.98,3.65,11.72,0.0,-0.49,4.76,-4.72,-0.3,-0.41,3963,2019-03-25 16:01:00:649
-0.51,3.82,12.27,0.43,0.43,4.28,-3.8,-0.2,-0.05,3968,2019-03-25 16:01:00:654
-0.51,3.82,12.27,0.43,0.43,4.28,-3.8,-0.2,-0.05,3973,2019-03-25 16:01:00:659
-0.51,3.82,12.27,0.43,0.43,4.28,-3.8,-0.2,-0.05,3978,2019-03-25 16:01:00:664
-0.52,3.91,11.83,0.32,1.02,2.94,-2.76,-0.18,0.0,3983,2019-03-25 16:01:00:669
-0.52,3.91,11.83,0.32,1.02,2.94,-2.76,-0.18,0.0,3988,2019-03-25 16:01:00:674
-0.52,3.91,11.83,0.32,1.02,2.94,-2.76,-0.18,0.0,3993,2019-03-25 16:01:00:679
-0.52,3.91,11.83,0.32,1.02,2.94,-2.76,-0.18,0.0,3998,2019-03-25 16:01:00:684
-0.36,4.12,11.24,0.29,1.5,1.59,-2.03,-0.49,-0.08,4003,2019-03-25 16:01:00:689
-0.36,4.12,11.24,0.29,1.5,1.59,-2.03,-0.49,-0.08,4008,2019-03-25 16:01:00:694
-0.36,4.12,11.24,0.29,1.5,1.59,-2.03,-0.49,-0.08,4013,2019-03-25 16:01:00:699
-0.36,4.12,11.24,0.38,1.42,0.68,-2.03,-0.49,-0.08,4018,2019-03-25 16:01:00:704
-0.36,4.12,11.24,0.38,1.42,0.68,-2.03,-0.49,-0.08,4023,2019-03-25 16:01:00:709
-0.36,4.12,11.24,0.38,1.42,0.68,-2.03,-0.49,-0.08,4028,2019-03-25 16:01:00:714
-0.1,3.63,10.02,0.33,1.14,-0.16,-1.8,-0.32,0.05,4033,2019-03-25 16:01:00:719
-0.1,3.63,10.02,0.33,1.14,-0.16,-1.8,-0.32,0.05,4038,2019-03-25 16:01:00:724
-0.1,3.63,10.02,0.33,1.14,-0.16,-1.8,-0.32,0.05,4043,2019-03-25 16:01:00:729
-0.13,3.48,9.14,0.14,1.18,-1.67,-1.96,-0.36,0.22,4048,2019-03-25 16:01:00:734
-0.13,3.48,9.14,0.14,1.18,-1.67,-1.96,-0.36,0.22,4053,2019-03-25 16:01:00:739
-0.13,3.48,9.14,0.14,1.18,-1.67,-1.96,-0.36,0.22,4057,2019-03-25 16:01:00:743
-0.13,3.48,9.14,0.14,1.18,-1.67,-1.96,-0.36,0.22,4064,2019-03-25 16:01:00:750
-0.13,3.48,9.14,0.14,1.18,-1.67,-1.96,-0.36,0.22,4068,2019-03-25 16:01:00:754
-0.13,3.48,9.14,0.14,1.18,-1.67,-1.96,-0.36,0.22,4074,2019-03-25 16:01:00:760
-0.13,3.48,9.14,0.14,1.18,-1.67,-1.96,-0.36,0.22,4078,2019-03-25 16:01:00:764
0.04,2.91,10.29,0.23,0.76,-0.92,-1.87,-0.66,0.1,4083,2019-03-25 16:01:00:769
0.04,2.91,10.29,0.23,0.76,-0.92,-1.87,-0.66,0.1,4088,2019-03-25 16:01:00:774
0.04,2.91,10.29,0.23,0.76,-0.92,-1.87,-0.66,0.1,4093,2019-03-25 16:01:00:779
0.04,2.91,10.29,0.23,0.76,-0.92,-1.87,-0.66,0.1,4098,2019-03-25 16:01:00:784
0.04,2.91,10.29,0.23,0.76,-0.92,-1.87,-0.66,0.1,4104,2019-03-25 16:01:00:790
0.04,2.91,10.29,0.23,0.76,-0.92,-1.87,-0.66,0.1,4108,2019-03-25 16:01:00:794
0.44,2.24,9.91,0.39,0.43,-1.69,-1.33,-0.25,-0.08,4113,2019-03-25 16:01:00:799
0.44,2.24,9.91,0.39,0.43,-1.69,-1.33,-0.25,-0.08,4118,2019-03-25 16:01:00:804
0.44,2.24,9.91,0.39,0.43,-1.69,-1.33,-0.25,-0.08,4123,2019-03-25 16:01:00:809
0.44,2.24,9.91,0.39,0.43,-1.69,-1.33,-0.25,-0.08,4128,2019-03-25 16:01:00:814
0.27,2.15,8.77,0.06,0.4,-2.5,-1.41,-0.22,-0.11,4133,2019-03-25 16:01:00:819
0.27,2.15,8.77,0.06,0.4,-2.5,-1.41,-0.22,-0.11,4138,2019-03-25 16:01:00:824
0.27,2.15,8.77,0.06,0.4,-2.5,-1.41,-0.22,-0.11,4144,2019-03-25 16:01:00:830
0.27,2.15,8.77,0.06,0.4,-2.5,-1.41,-0.22,-0.11,4148,2019-03-25 16:01:00:834
-0.09,1.88,8.13,-0.35,0.25,-2.68,-1.67,-0.14,-0.11,4154,2019-03-25 16:01:00:840
-0.09,1.88,8.13,-0.35,0.25,-2.68,-1.67,-0.14,-0.11,4158,2019-03-25 16:01:00:844
-0.09,1.88,8.13,-0.35,0.25,-2.68,-1.67,-0.14,-0.11,4163,2019-03-25 16:01:00:849
0.0,1.46,8.11,-0.25,0.08,-2.21,-1.87,-0.06,-0.05,4168,2019-03-25 16:01:00:854
0.0,1.46,8.11,-0.25,0.08,-2.21,-1.87,-0.06,-0.05,4173,2019-03-25 16:01:00:859
0.0,1.46,8.11,-0.25,0.08,-2.21,-1.87,-0.06,-0.05,4178,2019-03-25 16:01:00:864
0.05,0.64,10.38,-0.22,-0.38,0.32,-1.89,-0.21,-0.02,4183,2019-03-25 16:01:00:869
0.05,0.64,10.38,-0.22,-0.38,0.32,-1.89,-0.21,-0.02,4188,2019-03-25 16:01:00:874
0.05,0.64,10.38,-0.22,-0.38,0.32,-1.89,-0.21,-0.02,4193,2019-03-25 16:01:00:879
0.05,0.64,10.38,-0.22,-0.38,0.32,-1.89,-0.21,-0.02,4198,2019-03-25 16:01:00:884
0.05,0.64,10.38,-0.22,-0.38,0.32,-1.89,-0.21,-0.02,4203,2019-03-25 16:01:00:889
0.05,0.64,10.38,-0.22,-0.38,0.32,-1.89,-0.21,-0.02,4208,2019-03-25 16:01:00:894
0.05,0.64,10.38,-0.22,-0.38,0.32,-1.89,-0.21,-0.02,4214,2019-03-25 16:01:00:900
0.28,0.52,10.63,0.0,-0.12,0.63,-1.75,-0.02,0.05,4218,2019-03-25 16:01:00:904
0.28,0.52,10.63,0.0,-0.12,0.63,-1.75,-0.02,0.05,4224,2019-03-25 16:01:00:910
0.28,0.52,10.63,0.0,-0.12,0.63,-1.75,-0.02,0.05,4228,2019-03-25 16:01:00:914
0.28,0.52,10.63,0.0,-0.12,0.63,-1.75,-0.02,0.05,4233,2019-03-25 16:01:00:919
0.28,0.52,10.63,0.0,-0.12,0.63,-1.75,-0.02,0.05,4238,2019-03-25 16:01:00:924
0.28,0.52,10.63,0.0,-0.12,0.63,-1.75,-0.02,0.05,4243,2019-03-25 16:01:00:929
0.28,0.52,10.63,0.0,-0.12,0.63,-1.75,-0.02,0.05,4248,2019-03-25 16:01:00:934
-0.48,-0.08,9.54,-0.59,-0.07,-0.26,-1.61,0.33,0.01,4254,2019-03-25 16:01:00:940
-0.48,-0.08,9.54,-0.59,-0.07,-0.26,-1.61,0.33,0.01,4258,2019-03-25 16:01:00:944
-0.48,-0.08,9.54,-0.59,-0.07,-0.26,-1.61,0.33,0.01,4263,2019-03-25 16:01:00:949
-0.48,-0.08,9.54,-0.59,-0.07,-0.26,-1.61,0.33,0.01,4268,2019-03-25 16:01:00:954
-0.34,-0.32,12.2,-0.29,0.05,2.28,-1.81,0.54,0.1,4274,2019-03-25 16:01:00:960
-0.34,-0.32,12.2,-0.29,0.05,2.28,-1.81,0.54,0.1,4278,2019-03-25 16:01:00:964
0.48,-0.52,12.46,0.66,0.12,2.43,-1.5,0.67,0.13,4283,2019-03-25 16:01:00:969
0.48,-0.52,12.46,0.66,0.12,2.43,-1.5,0.67,0.13,4289,2019-03-25 16:01:00:975
0.48,-0.52,12.46,0.66,0.12,2.43,-1.5,0.67,0.13,4293,2019-03-25 16:01:00:979
0.48,-0.52,12.46,0.66,0.12,2.43,-1.5,0.67,0.13,4298,2019-03-25 16:01:00:984
0.48,-0.52,12.46,0.66,0.12,2.43,-1.5,0.67,0.13,4303,2019-03-25 16:01:00:989
0.48,-0.52,12.46,0.66,0.12,2.43,-1.5,0.67,0.13,4308,2019-03-25 16:01:00:994
0.48,-0.52,12.46,0.66,0.12,2.43,-1.5,0.67,0.13,4313,2019-03-25 16:01:00:999
0.32,-0.87,12.39,0.64,0.0,2.2,-1.11,0.9,-0.04,4318,2019-03-25 16:01:01:004
0.32,-0.87,12.39,0.64,0.0,2.2,-1.11,0.9,-0.04,4323,2019-03-25 16:01:01:009
0.32,-0.87,12.39,0.64,0.0,2.2,-1.11,0.9,-0.04,4328,2019-03-25 16:01:01:014
-0.68,-0.86,11.96,-0.14,0.2,1.52,-0.89,1.14,-0.26,4333,2019-03-25 16:01:01:019
-0.68,-0.86,11.96,-0.14,0.2,1.52,-0.89,1.14,-0.26,4338,2019-03-25 16:01:01:024
-0.68,-0.86,11.96,-0.14,0.2,1.52,-0.89,1.14,-0.26,4343,2019-03-25 16:01:01:029
-0.68,-0.86,11.96,-0.14,0.2,1.52,-0.89,1.14,-0.26,4348,2019-03-25 16:01:01:034
-1.49,-0.61,11.24,-0.66,0.57,0.52,-0.73,1.09,-0.27,4353,2019-03-25 16:01:01:039
-1.49,-0.61,11.24,-0.66,0.57,0.52,-0.73,1.09,-0.27,4357,2019-03-25 16:01:01:043
-1.49,-0.61,11.24,-0.66,0.57,0.52,-0.73,1.09,-0.27,4363,2019-03-25 16:01:01:049
-1.95,-1.37,11.13,-0.94,-0.08,0.14,-0.41,0.29,-0.27,4367,2019-03-25 16:01:01:053
-1.95,-1.37,11.13,-0.94,-0.08,0.14,-0.41,0.29,-0.27,4373,2019-03-25 16:01:01:059
-1.95,-1.37,11.13,-0.94,-0.08,0.14,-0.41,0.29,-0.27,4378,2019-03-25 16:01:01:064
-1.82,-1.5,11.34,-0.94,-0.08,0.14,-0.41,0.29,-0.27,4383,2019-03-25 16:01:01:069
-1.82,-1.5,11.34,-0.72,-0.18,0.18,-0.05,-0.08,-0.12,4388,2019-03-25 16:01:01:074
-1.82,-1.5,11.34,-0.72,-0.18,0.18,-0.05,-0.08,-0.12,4393,2019-03-25 16:01:01:079
-1.82,-1.5,11.34,-0.72,-0.18,0.18,-0.05,-0.08,-0.12,4398,2019-03-25 16:01:01:084
-1.07,-0.82,10.11,0.09,0.42,-1.01,0.14,0.07,0.2,4403,2019-03-25 16:01:01:089
-1.07,-0.82,10.11,0.09,0.42,-1.01,0.14,0.07,0.2,4407,2019-03-25 16:01:01:093
-1.07,-0.82,10.11,0.09,0.42,-1.01,0.14,0.07,0.2,4413,2019-03-25 16:01:01:099
-1.07,-0.82,10.11,0.09,0.42,-1.01,0.14,0.07,0.2,4418,2019-03-25 16:01:01:104
-1.07,-0.82,10.11,0.09,0.42,-1.01,0.14,0.07,0.2,4423,2019-03-25 16:01:01:109
-1.07,-0.82,10.11,0.09,0.42,-1.01,0.14,0.07,0.2,4428,2019-03-25 16:01:01:114
-0.87,-0.72,9.26,0.3,0.4,-1.87,0.2,0.12,0.27,4433,2019-03-25 16:01:01:119
-0.87,-0.72,9.26,0.3,0.4,-1.87,0.2,0.12,0.27,4438,2019-03-25 16:01:01:124
-0.87,-0.72,9.26,0.3,0.4,-1.87,0.2,0.12,0.27,4443,2019-03-25 16:01:01:129
-1.2,-0.68,9.0,0.03,0.35,-2.08,0.22,-0.08,0.32,4448,2019-03-25 16:01:01:134
-1.2,-0.68,9.0,0.03,0.35,-2.08,0.22,-0.08,0.32,4453,2019-03-25 16:01:01:139
-1.2,-0.68,9.0,0.03,0.35,-2.08,0.22,-0.08,0.32,4458,2019-03-25 16:01:01:144
-1.2,-0.68,9.0,0.03,0.35,-2.08,0.22,-0.08,0.32,4463,2019-03-25 16:01:01:149
-1.3,-0.77,8.97,-0.22,0.13,-1.91,0.23,-0.35,0.38,4468,2019-03-25 16:01:01:154
-1.3,-0.77,8.97,-0.22,0.13,-1.91,0.23,-0.35,0.38,4472,2019-03-25 16:01:01:158
-1.3,-0.77,8.97,-0.22,0.13,-1.91,0.23,-0.35,0.38,4478,2019-03-25 16:01:01:164
-1.3,-0.53,9.92,-0.22,0.3,-0.7,0.11,-0.62,0.48,4484,2019-03-25 16:01:01:170
-1.3,-0.53,9.92,-0.22,0.3,-0.7,0.11,-0.62,0.48,4489,2019-03-25 16:01:01:175
-1.3,-0.53,9.92,-0.22,0.3,-0.7,0.11,-0.62,0.48,4493,2019-03-25 16:01:01:179
-1.3,-0.53,9.92,-0.22,0.3,-0.7,0.11,-0.62,0.48,4498,2019-03-25 16:01:01:184
-1.77,-0.36,10.23,-0.64,0.38,-0.19,0.14,-0.6,0.58,4502,2019-03-25 16:01:01:188
-1.77,-0.36,10.23,-0.64,0.38,-0.19,0.14,-0.6,0.58,4512,2019-03-25 16:01:01:198
-1.77,-0.36,10.23,-0.64,0.38,-0.19,0.14,-0.6,0.58,4513,2019-03-25 16:01:01:199
-1.77,-0.36,10.23,-0.64,0.38,-0.19,0.14,-0.6,0.58,4517,2019-03-25 16:01:01:203
-1.77,-0.36,10.23,-0.64,0.38,-0.19,0.14,-0.6,0.58,4523,2019-03-25 16:01:01:209
-1.77,-0.36,10.23,-0.64,0.38,-0.19,0.14,-0.6,0.58,4528,2019-03-25 16:01:01:214
-1.77,-0.36,10.23,-0.64,0.38,-0.19,0.14,-0.6,0.58,4533,2019-03-25 16:01:01:219
-1.89,-0.32,9.86,-0.7,0.28,-0.36,0.2,-0.43,0.77,4538,2019-03-25 16:01:01:224
-1.89,-0.32,9.86,-0.7,0.28,-0.36,0.2,-0.43,0.77,4543,2019-03-25 16:01:01:229
-1.89,-0.32,9.86,-0.7,0.28,-0.36,0.2,-0.43,0.77,4548,2019-03-25 16:01:01:234
-1.66,-0.8,8.88,-0.5,-0.2,-1.1,0.17,-0.65,1.04,4553,2019-03-25 16:01:01:239
-1.66,-0.8,8.88,-0.5,-0.2,-1.1,0.17,-0.65,1.04,4558,2019-03-25 16:01:01:244
-1.85,-0.93,10.05,-0.5,-0.2,0.2,-0.03,-1.08,1.3,4563,2019-03-25 16:01:01:249
-1.85,-0.93,10.05,-0.81,-0.34,0.2,-0.03,-1.08,1.3,4568,2019-03-25 16:01:01:254
-1.85,-0.93,10.05,-0.81,-0.34,0.2,-0.03,-1.08,1.3,4573,2019-03-25 16:01:01:259
-1.85,-0.93,10.05,-0.81,-0.34,0.2,-0.03,-1.08,1.3,4579,2019-03-25 16:01:01:265
-1.85,-0.93,10.05,-0.81,-0.34,0.2,-0.03,-1.08,1.3,4583,2019-03-25 16:01:01:269
-1.85,-0.93,10.05,-0.81,-0.34,0.2,-0.03,-1.08,1.3,4588,2019-03-25 16:01:01:274
-1.51,-0.69,11.62,-0.81,-0.34,0.2,-0.14,-0.91,1.56,4593,2019-03-25 16:01:01:279
-1.51,-0.69,11.62,-0.81,-0.34,0.2,-0.14,-0.91,1.56,4598,2019-03-25 16:01:01:284
-1.51,-0.69,11.62,-0.62,-0.11,1.8,0.02,-0.81,1.65,4603,2019-03-25 16:01:01:289
-1.51,-0.69,11.62,-0.62,-0.11,1.8,0.02,-0.81,1.65,4607,2019-03-25 16:01:01:293
-1.51,-0.69,11.62,-0.62,-0.11,1.8,0.02,-0.81,1.65,4613,2019-03-25 16:01:01:299
-0.76,-0.83,12.0,0.05,-0.28,2.03,0.26,-0.7,1.69,4618,2019-03-25 16:01:01:304
-0.76,-0.83,12.0,0.05,-0.28,2.03,0.26,-0.7,1.69,4625,2019-03-25 16:01:01:311
-0.76,-0.83,12.0,0.05,-0.28,2.03,0.26,-0.7,1.69,4629,2019-03-25 16:01:01:315
-0.76,-0.83,12.0,0.05,-0.28,2.03,0.26,-0.7,1.69,4633,2019-03-25 16:01:01:319
-0.76,-0.83,12.0,0.05,-0.28,2.03,0.26,-0.7,1.69,4638,2019-03-25 16:01:01:324
-0.26,-0.21,11.45,0.64,0.04,1.01,1.22,0.64,1.73,4643,2019-03-25 16:01:01:329
-0.26,-0.21,11.45,0.64,0.04,1.01,1.22,0.64,1.73,4648,2019-03-25 16:01:01:334
-0.26,-0.21,11.45,0.64,0.04,1.01,1.22,0.64,1.73,4654,2019-03-25 16:01:01:340
-0.26,-0.21,11.45,0.64,0.04,1.01,1.22,0.64,1.73,4658,2019-03-25 16:01:01:344
-0.26,-0.21,11.45,0.64,0.04,1.01,1.22,0.64,1.73,4663,2019-03-25 16:01:01:349
-1.57,-0.58,10.94,-0.35,-0.55,0.29,1.51,1.33,1.76,4668,2019-03-25 16:01:01:354
-1.57,-0.58,10.94,-0.35,-0.55,0.29,1.51,1.33,1.76,4673,2019-03-25 16:01:01:359
-1.57,-0.58,10.94,-0.35,-0.55,0.29,1.51,1.33,1.76,4678,2019-03-25 16:01:01:364
-2.43,-0.34,9.27,-0.89,-0.5,-1.35,1.24,0.9,2.01,4684,2019-03-25 16:01:01:370
-2.43,-0.34,9.27,-0.89,-0.5,-1.35,1.24,0.9,2.01,4688,2019-03-25 16:01:01:374
-2.43,-0.34,9.27,-0.89,-0.5,-1.35,1.24,0.9,2.01,4693,2019-03-25 16:01:01:379
-2.43,-0.34,9.27,-0.89,-0.5,-1.35,1.24,0.9,2.01,4698,2019-03-25 16:01:01:384
-2.12,-0.28,9.61,-0.47,-0.55,-0.93,0.92,0.0,2.33,4703,2019-03-25 16:01:01:389
-2.12,-0.28,9.61,-0.47,-0.55,-0.93,0.92,0.0,2.33,4708,2019-03-25 16:01:01:394
-2.12,-0.28,9.61,-0.47,-0.55,-0.93,0.92,0.0,2.33,4713,2019-03-25 16:01:01:399
-2.12,-0.28,9.61,-0.47,-0.55,-0.93,0.92,0.0,2.33,4718,2019-03-25 16:01:01:404
-2.12,-0.28,9.61,-0.47,-0.55,-0.93,0.92,0.0,2.33,4723,2019-03-25 16:01:01:409
-2.12,-0.28,9.61,-0.47,-0.55,-0.93,0.92,0.0,2.33,4728,2019-03-25 16:01:01:414
-1.5,-0.63,10.58,0.47,-0.43,0.01,0.88,0.14,2.73,4733,2019-03-25 16:01:01:419
-1.5,-0.63,10.58,0.47,-0.43,0.01,0.88,0.14,2.73,4738,2019-03-25 16:01:01:424
-1.5,-0.63,10.58,0.47,-0.43,0.01,0.88,0.14,2.73,4743,2019-03-25 16:01:01:429
-1.5,-0.63,10.58,0.47,-0.43,0.01,0.88,0.14,2.73,4748,2019-03-25 16:01:01:434
-0.85,-0.89,9.37,1.11,-0.81,-1.24,0.92,0.77,3.14,4753,2019-03-25 16:01:01:439
-0.85,-0.89,9.37,1.11,-0.81,-1.24,0.92,0.77,3.14,4758,2019-03-25 16:01:01:444
-0.85,-0.89,9.37,1.11,-0.81,-1.24,0.92,0.77,3.14,4763,2019-03-25 16:01:01:449
-0.85,-0.89,9.37,1.11,-0.81,-1.24,0.92,0.77,3.14,4768,2019-03-25 16:01:01:454
-1.4,-1.09,9.54,0.59,-1.12,-1.03,0.85,1.12,3.31,4775,2019-03-25 16:01:01:461
-1.4,-1.09,9.54,0.59,-1.12,-1.03,0.85,1.12,3.31,4778,2019-03-25 16:01:01:464
-2.25,-1.78,7.69,0.59,-1.12,-1.03,0.52,1.13,3.54,4783,2019-03-25 16:01:01:469
-2.25,-1.78,7.69,0.59,-1.12,-1.03,0.52,1.13,3.54,4788,2019-03-25 16:01:01:474
-2.25,-1.78,7.69,0.59,-1.12,-1.03,0.52,1.13,3.54,4793,2019-03-25 16:01:01:479
-2.25,-1.78,7.69,0.59,-1.12,-1.03,0.52,1.13,3.54,4798,2019-03-25 16:01:01:484
-2.25,-1.78,7.69,0.59,-1.12,-1.03,0.52,1.13,3.54,4803,2019-03-25 16:01:01:489
-2.25,-1.78,7.69,0.59,-1.12,-1.03,0.52,1.13,3.54,4808,2019-03-25 16:01:01:494
-2.25,-1.78,7.69,0.59,-1.12,-1.03,0.52,1.13,3.54,4813,2019-03-25 16:01:01:499
-2.3,-2.88,9.57,-0.27,-2.63,-0.39,-0.18,-0.76,3.46,4818,2019-03-25 16:01:01:504
-2.3,-2.88,9.57,-0.27,-2.63,-0.39,-0.18,-0.76,3.46,4823,2019-03-25 16:01:01:509
-2.3,-2.88,9.57,-0.27,-2.63,-0.39,-0.18,-0.76,3.46,4828,2019-03-25 16:01:01:514
-2.3,-2.88,9.57,-0.27,-2.63,-0.39,-0.18,-0.76,3.46,4833,2019-03-25 16:01:01:519
-2.3,-2.88,9.57,-0.27,-2.63,-0.39,-0.18,-0.76,3.46,4838,2019-03-25 16:01:01:524
-2.3,-2.88,9.57,-0.27,-2.63,-0.39,-0.18,-0.76,3.46,4843,2019-03-25 16:01:01:529
-2.55,-2.78,9.39,-0.72,-2.19,-0.42,0.01,-1.02,3.35,4848,2019-03-25 16:01:01:534
-2.55,-2.78,9.39,-0.72,-2.19,-0.42,0.01,-1.02,3.35,4853,2019-03-25 16:01:01:539
-2.55,-2.78,9.39,-0.72,-2.19,-0.42,0.01,-1.02,3.35,4858,2019-03-25 16:01:01:544
0.04,-1.09,11.65,-0.72,-2.19,-0.42,0.89,-0.53,3.8,4863,2019-03-25 16:01:01:549
0.04,-1.09,11.65,1.43,-0.37,1.93,0.89,-0.53,3.8,4868,2019-03-25 16:01:01:554
0.04,-1.09,11.65,1.43,-0.37,1.93,0.89,-0.53,3.8,4873,2019-03-25 16:01:01:559
0.04,-1.09,11.65,1.43,-0.37,1.93,0.89,-0.53,3.8,4878,2019-03-25 16:01:01:564
3.59,0.25,11.93,4.37,0.86,1.98,1.02,0.0,3.97,4883,2019-03-25 16:01:01:569
3.59,0.25,11.93,4.37,0.86,1.98,1.02,0.0,3.97,4888,2019-03-25 16:01:01:574
3.59,0.25,11.93,4.37,0.86,1.98,1.02,0.0,3.97,4893,2019-03-25 16:01:01:579
3.59,0.25,11.93,4.37,0.86,1.98,1.02,0.0,3.97,4898,2019-03-25 16:01:01:584
5.11,1.31,11.35,5.11,1.66,1.22,1.11,0.47,3.02,4903,2019-03-25 16:01:01:589
5.11,1.31,11.35,5.11,1.66,1.22,1.11,0.47,3.02,4908,2019-03-25 16:01:01:594
5.11,1.31,11.35,5.11,1.66,1.22,1.11,0.47,3.02,4913,2019-03-25 16:01:01:599
5.11,1.31,11.35,5.11,1.66,1.22,1.11,0.47,3.02,4918,2019-03-25 16:01:01:604
5.11,1.31,11.35,5.11,1.66,1.22,1.11,0.47,3.02,4923,2019-03-25 16:01:01:609
5.11,1.31,11.35,5.11,1.66,1.22,1.11,0.47,3.02,4928,2019-03-25 16:01:01:614
3.35,1.76,10.41,2.96,1.86,0.27,1.13,0.84,2.04,4933,2019-03-25 16:01:01:619
3.35,1.76,10.41,2.96,1.86,0.27,1.13,0.84,2.04,4938,2019-03-25 16:01:01:624
3.35,1.76,10.41,2.96,1.86,0.27,1.13,0.84,2.04,4944,2019-03-25 16:01:01:630
3.35,1.76,10.41,2.96,1.86,0.27,1.13,0.84,2.04,4948,2019-03-25 16:01:01:634
3.14,2.82,9.21,2.44,2.5,-0.87,1.21,0.6,1.81,4953,2019-03-25 16:01:01:639
3.14,2.82,9.21,2.44,2.5,-0.87,1.21,0.6,1.81,4958,2019-03-25 16:01:01:644
3.14,2.82,9.21,2.44,2.5,-0.87,1.21,0.6,1.81,4963,2019-03-25 16:01:01:649
2.66,2.77,7.85,1.65,2.02,-2.07,1.07,0.31,1.37,4968,2019-03-25 16:01:01:654
2.66,2.77,7.85,1.65,2.02,-2.07,1.07,0.31,1.37,4973,2019-03-25 16:01:01:659
2.66,2.77,7.85,1.65,2.02,-2.07,1.07,0.31,1.37,4978,2019-03-25 16:01:01:664
2.86,2.65,7.37,1.44,1.48,-2.46,0.74,0.26,1.07,4983,2019-03-25 16:01:01:669
2.86,2.65,7.37,1.44,1.48,-2.46,0.74,0.26,1.07,4988,2019-03-25 16:01:01:674
2.86,2.65,7.37,1.44,1.48,-2.46,0.74,0.26,1.07,4994,2019-03-25 16:01:01:680
2.86,2.65,7.37,1.44,1.48,-2.46,0.74,0.26,1.07,4998,2019-03-25 16:01:01:684
2.69,2.6,7.29,0.82,0.96,-2.37,0.55,-0.02,0.65,5003,2019-03-25 16:01:01:689
2.69,2.6,7.29,0.82,0.96,-2.37,0.55,-0.02,0.65,5008,2019-03-25 16:01:01:694
2.69,2.6,7.29,0.82,0.96,-2.37,0.55,-0.02,0.65,5013,2019-03-25 16:01:01:699
2.69,2.6,7.29,0.82,0.96,-2.37,0.55,-0.02,0.65,5018,2019-03-25 16:01:01:704
2.69,2.6,7.29,0.82,0.96,-2.37,0.55,-0.02,0.65,5023,2019-03-25 16:01:01:709
2.69,2.6,7.29,0.82,0.96,-2.37,0.55,-0.02,0.65,5028,2019-03-25 16:01:01:714
2.73,2.82,7.09,0.37,0.7,-2.29,0.42,-0.19,0.18,5033,2019-03-25 16:01:01:719
2.73,2.82,7.09,0.37,0.7,-2.29,0.42,-0.19,0.18,5039,2019-03-25 16:01:01:725
2.73,2.82,7.09,0.37,0.7,-2.29,0.42,-0.19,0.18,5044,2019-03-25 16:01:01:730
2.73,2.82,7.09,0.37,0.7,-2.29,0.42,-0.19,0.18,5048,2019-03-25 16:01:01:734
4.29,2.56,7.01,1.32,0.12,-2.06,0.19,-0.09,-0.27,5053,2019-03-25 16:01:01:739
4.29,2.56,7.01,1.32,0.12,-2.06,0.19,-0.09,-0.27,5058,2019-03-25 16:01:01:744
4.29,2.56,7.01,1.32,0.12,-2.06,0.19,-0.09,-0.27,5063,2019-03-25 16:01:01:749
4.77,1.78,6.6,1.34,-0.8,-2.05,0.0,0.14,-0.87,5068,2019-03-25 16:01:01:754
4.77,1.78,6.6,1.34,-0.8,-2.05,0.0,0.14,-0.87,5074,2019-03-25 16:01:01:760
4.77,1.78,6.6,1.34,-0.8,-2.05,0.0,0.14,-0.87,5078,2019-03-25 16:01:01:764
3.61,1.86,6.65,0.13,-0.73,-1.49,-0.41,0.0,-1.55,5083,2019-03-25 16:01:01:769
3.61,1.86,6.65,0.13,-0.73,-1.49,-0.41,0.0,-1.55,5088,2019-03-25 16:01:01:774
3.61,1.86,6.65,0.13,-0.73,-1.49,-0.41,0.0,-1.55,5093,2019-03-25 16:01:01:779
3.61,1.86,6.65,0.13,-0.73,-1.49,-0.41,0.0,-1.55,5098,2019-03-25 16:01:01:784
1.94,1.88,7.34,-1.2,-0.51,-0.41,-0.91,-0.33,-2.19,5103,2019-03-25 16:01:01:789
1.94,1.88,7.34,-1.2,-0.51,-0.41,-0.91,-0.33,-2.19,5108,2019-03-25 16:01:01:794
1.94,1.88,7.34,-1.2,-0.51,-0.41,-0.91,-0.33,-2.19,5113,2019-03-25 16:01:01:799
1.94,1.88,7.34,-1.2,-0.51,-0.41,-0.91,-0.33,-2.19,5118,2019-03-25 16:01:01:804
1.94,1.88,7.34,-1.2,-0.51,-0.41,-0.91,-0.33,-2.19,5123,2019-03-25 16:01:01:809
1.94,1.88,7.34,-1.2,-0.51,-0.41,-0.91,-0.33,-2.19,5129,2019-03-25 16:01:01:815
1.55,1.69,8.99,-1.41,-0.41,1.34,-1.67,-0.76,-2.78,5133,2019-03-25 16:01:01:819
1.55,1.69,8.99,-1.41,-0.41,1.34,-1.67,-0.76,-2.78,5138,2019-03-25 16:01:01:824
1.55,1.69,8.99,-1.41,-0.41,1.34,-1.67,-0.76,-2.78,5143,2019-03-25 16:01:01:829
1.55,1.69,8.99,-1.41,-0.41,1.34,-1.67,-0.76,-2.78,5148,2019-03-25 16:01:01:834
3.03,0.6,11.52,0.07,-0.93,3.63,-2.13,-1.13,-3.42,5153,2019-03-25 16:01:01:839
3.03,0.6,11.52,0.07,-0.93,3.63,-2.13,-1.13,-3.42,5158,2019-03-25 16:01:01:844
3.03,0.6,11.52,0.07,-0.93,3.63,-2.13,-1.13,-3.42,5163,2019-03-25 16:01:01:849
4.27,-0.17,12.71,0.07,-0.93,3.63,-1.68,-1.24,-4.14,5169,2019-03-25 16:01:01:855
4.27,-0.17,12.71,0.07,-0.93,3.63,-1.68,-1.24,-4.14,5172,2019-03-25 16:01:01:858
4.27,-0.17,12.71,0.07,-0.93,3.63,-1.68,-1.24,-4.14,5178,2019-03-25 16:01:01:864
3.87,-2.01,12.69,0.42,-2.48,3.76,-0.9,-0.64,-5.0,5184,2019-03-25 16:01:01:870
3.87,-2.01,12.69,0.42,-2.48,3.76,-0.9,-0.64,-5.0,5188,2019-03-25 16:01:01:874
3.87,-2.01,12.69,0.42,-2.48,3.76,-0.9,-0.64,-5.0,5193,2019-03-25 16:01:01:879
3.87,-2.01,12.69,0.42,-2.48,3.76,-0.9,-0.64,-5.0,5198,2019-03-25 16:01:01:884
1.2,-3.54,12.33,-2.01,-3.47,2.87,-0.42,0.31,-6.0,5203,2019-03-25 16:01:01:889
1.2,-3.54,12.33,-2.01,-3.47,2.87,-0.42,0.31,-6.0,5208,2019-03-25 16:01:01:894
1.2,-3.54,12.33,-2.01,-3.47,2.87,-0.42,0.31,-6.0,5213,2019-03-25 16:01:01:899
1.2,-3.54,12.33,-2.01,-3.47,2.87,-0.42,0.31,-6.0,5218,2019-03-25 16:01:01:904
1.2,-3.54,12.33,-2.01,-3.47,2.87,-0.42,0.31,-6.0,5223,2019-03-25 16:01:01:909
1.2,-3.54,12.33,-2.01,-3.47,2.87,-0.42,0.31,-6.0,5229,2019-03-25 16:01:01:915
-1.23,-4.72,11.62,-3.83,-4.02,1.72,0.05,1.01,-6.53,5233,2019-03-25 16:01:01:919
-1.23,-4.72,11.62,-3.83,-4.02,1.72,0.05,1.01,-6.53,5238,2019-03-25 16:01:01:924
-1.23,-4.72,11.62,-3.83,-4.02,1.72,0.05,1.01,-6.53,5243,2019-03-25 16:01:01:929
-1.23,-4.72,11.62,-3.83,-4.02,1.72,0.05,1.01,-6.53,5248,2019-03-25 16:01:01:934
-3.1,-4.23,10.87,-4.71,-2.95,0.66,0.34,1.72,-6.33,5253,2019-03-25 16:01:01:939
-3.1,-4.23,10.87,-4.71,-2.95,0.66,0.34,1.72,-6.33,5258,2019-03-25 16:01:01:944
-3.1,-4.23,10.87,-4.71,-2.95,0.66,0.34,1.72,-6.33,5263,2019-03-25 16:01:01:949
-3.21,-0.84,10.07,-3.58,0.73,-0.45,0.41,2.02,-5.99,5268,2019-03-25 16:01:01:954
-3.21,-0.84,10.07,-3.58,0.73,-0.45,0.41,2.02,-5.99,5273,2019-03-25 16:01:01:959
-3.21,-0.84,10.07,-3.58,0.73,-0.45,0.41,2.02,-5.99,5279,2019-03-25 16:01:01:965
-3.21,-0.84,10.07,-3.58,0.73,-0.45,0.41,2.02,-5.99,5284,2019-03-25 16:01:01:970
-3.21,-0.84,10.07,-3.58,0.73,-0.45,0.41,2.02,-5.99,5289,2019-03-25 16:01:01:975
-5.27,-3.97,11.42,-3.58,0.73,-0.45,0.41,2.02,-5.99,5293,2019-03-25 16:01:01:979
-5.27,-3.97,11.42,-4.48,-2.02,0.51,0.8,1.51,-5.69,5298,2019-03-25 16:01:01:984
-5.03,-1.27,10.29,-4.48,-2.02,0.51,0.8,1.51,-5.69,5303,2019-03-25 16:01:01:989
-5.03,-1.27,10.29,-4.48,-2.02,0.51,0.8,1.51,-5.69,5308,2019-03-25 16:01:01:994
-5.03,-1.27,10.29,-4.48,-2.02,0.51,0.8,1.51,-5.69,5313,2019-03-25 16:01:01:999
-5.03,-1.27,10.29,-4.48,-2.02,0.51,0.8,1.51,-5.69,5318,2019-03-25 16:01:02:004
-5.03,-1.27,10.29,-4.48,-2.02,0.51,0.8,1.51,-5.69,5325,2019-03-25 16:01:02:011
-5.03,-1.27,10.29,-4.48,-2.02,0.51,0.8,1.51,-5.69,5328,2019-03-25 16:01:02:014
-3.91,0.66,10.14,-1.83,3.14,-1.12,0.81,-0.77,-4.07,5333,2019-03-25 16:01:02:019
-3.91,0.66,10.14,-1.83,3.14,-1.12,0.81,-0.77,-4.07,5338,2019-03-25 16:01:02:024
-3.91,0.66,10.14,-1.83,3.14,-1.12,0.81,-0.77,-4.07,5343,2019-03-25 16:01:02:029
-3.91,0.66,10.14,-1.83,3.14,-1.12,0.81,-0.77,-4.07,5348,2019-03-25 16:01:02:034
-3.69,2.0,9.7,-1.36,4.29,-1.47,0.68,-1.38,-3.42,5353,2019-03-25 16:01:02:039
-3.69,2.0,9.7,-1.36,4.29,-1.47,0.68,-1.38,-3.42,5358,2019-03-25 16:01:02:044
-3.53,1.44,9.74,-1.36,4.29,-1.47,0.55,-1.12,-2.87,5364,2019-03-25 16:01:02:050
-3.53,1.44,9.74,-1.36,4.29,-1.47,0.55,-1.12,-2.87,5368,2019-03-25 16:01:02:054
-3.53,1.44,9.74,-1.36,4.29,-1.47,0.55,-1.12,-2.87,5373,2019-03-25 16:01:02:059
-3.53,1.44,9.74,-1.36,4.29,-1.47,0.55,-1.12,-2.87,5378,2019-03-25 16:01:02:064
-2.66,0.93,8.67,0.63,2.71,-1.9,0.53,-0.39,-2.29,5383,2019-03-25 16:01:02:069
-2.66,0.93,8.67,0.63,2.71,-1.9,0.53,-0.39,-2.29,5388,2019-03-25 16:01:02:074
-2.66,0.93,8.67,0.63,2.71,-1.9,0.53,-0.39,-2.29,5393,2019-03-25 16:01:02:079
-2.66,0.93,8.67,0.63,2.71,-1.9,0.53,-0.39,-2.29,5398,2019-03-25 16:01:02:084
-1.84,0.64,7.84,1.67,1.99,-2.28,0.33,-0.3,-2.06,5403,2019-03-25 16:01:02:089
-1.84,0.64,7.84,1.67,1.99,-2.28,0.33,-0.3,-2.06,5408,2019-03-25 16:01:02:094
-1.84,0.64,7.84,1.67,1.99,-2.28,0.33,-0.3,-2.06,5413,2019-03-25 16:01:02:099
-1.84,0.64,7.84,1.67,1.99,-2.28,0.33,-0.3,-2.06,5418,2019-03-25 16:01:02:104
-1.84,0.64,7.84,1.67,1.99,-2.28,0.33,-0.3,-2.06,5423,2019-03-25 16:01:02:109
-1.84,0.64,7.84,1.67,1.99,-2.28,0.33,-0.3,-2.06,5428,2019-03-25 16:01:02:114
-1.76,0.21,8.07,1.66,1.12,-1.67,0.03,-0.5,-2.04,5434,2019-03-25 16:01:02:120
-1.76,0.21,8.07,1.66,1.12,-1.67,0.03,-0.5,-2.04,5438,2019-03-25 16:01:02:124
-1.76,0.21,8.07,1.66,1.12,-1.67,0.03,-0.5,-2.04,5443,2019-03-25 16:01:02:129
-1.76,0.21,8.07,1.66,1.12,-1.67,0.03,-0.5,-2.04,5447,2019-03-25 16:01:02:133
-2.92,0.57,8.41,0.23,0.91,-0.95,-0.47,-0.35,-1.91,5454,2019-03-25 16:01:02:140
-2.92,0.57,8.41,0.23,0.91,-0.95,-0.47,-0.35,-1.91,5459,2019-03-25 16:01:02:145
-2.92,0.57,8.41,0.23,0.91,-0.95,-0.47,-0.35,-1.91,5463,2019-03-25 16:01:02:149
-2.92,0.57,8.41,0.23,0.91,-0.95,-0.47,-0.35,-1.91,5468,2019-03-25 16:01:02:154
-3.19,0.58,8.71,-0.05,0.91,-0.58,-0.57,-0.21,-1.86,5473,2019-03-25 16:01:02:159
-3.19,0.58,8.71,-0.05,0.91,-0.58,-0.57,-0.21,-1.86,5478,2019-03-25 16:01:02:164
-3.79,1.1,8.3,-1.33,1.45,-0.1,-0.57,0.11,-1.77,5483,2019-03-25 16:01:02:169
-3.79,1.1,8.3,-1.33,1.45,-0.1,-0.57,0.11,-1.77,5488,2019-03-25 16:01:02:174
-3.79,1.1,8.3,-1.33,1.45,-0.1,-0.57,0.11,-1.77,5493,2019-03-25 16:01:02:179
-3.79,1.1,8.3,-1.33,1.45,-0.1,-0.57,0.11,-1.77,5498,2019-03-25 16:01:02:184
-3.79,1.1,8.3,-1.33,1.45,-0.1,-0.57,0.11,-1.77,5503,2019-03-25 16:01:02:189
-3.79,1.1,8.3,-1.33,1.45,-0.1,-0.57,0.11,-1.77,5508,2019-03-25 16:01:02:194
-3.79,1.1,8.3,-1.33,1.45,-0.1,-0.57,0.11,-1.77,5513,2019-03-25 16:01:02:199
-5.04,1.75,10.41,-1.99,1.39,1.42,-0.76,-0.09,-1.66,5517,2019-03-25 16:01:02:203
-5.04,1.75,10.41,-1.99,1.39,1.42,-0.76,-0.09,-1.66,5522,2019-03-25 16:01:02:208
-5.04,1.75,10.41,-1.99,1.39,1.42,-0.76,-0.09,-1.66,5528,2019-03-25 16:01:02:214
-5.4,0.68,13.06,-2.2,0.29,3.84,-0.69,0.02,-1.28,5532,2019-03-25 16:01:02:218
-5.4,0.68,13.06,-2.2,0.29,3.84,-0.69,0.02,-1.28,5538,2019-03-25 16:01:02:224
-5.4,0.68,13.06,-2.2,0.29,3.84,-0.69,0.02,-1.28,5543,2019-03-25 16:01:02:229
-5.4,0.68,13.06,-2.2,0.29,3.84,-0.69,0.02,-1.28,5548,2019-03-25 16:01:02:234
-1.09,0.71,13.4,2.01,0.39,3.84,0.07,0.24,-0.49,5553,2019-03-25 16:01:02:239
-1.09,0.71,13.4,2.01,0.39,3.84,0.07,0.24,-0.49,5558,2019-03-25 16:01:02:244
-1.09,0.71,13.4,2.01,0.39,3.84,0.07,0.24,-0.49,5563,2019-03-25 16:01:02:249
0.48,-0.3,12.89,3.26,-0.63,2.99,0.59,0.2,-0.6,5568,2019-03-25 16:01:02:254
0.48,-0.3,12.89,3.26,-0.63,2.99,0.59,0.2,-0.6,5573,2019-03-25 16:01:02:259
0.48,-0.3,12.89,3.26,-0.63,2.99,0.59,0.2,-0.6,5579,2019-03-25 16:01:02:265
0.48,-0.3,12.89,3.26,-0.63,2.99,0.59,0.2,-0.6,5590,2019-03-25 16:01:02:276
0.48,-0.3,12.89,3.26,-0.63,2.99,0.59,0.2,-0.6,5591,2019-03-25 16:01:02:277
4.97,-4.08,7.11,7.14,-4.18,-2.76,0.87,-0.4,-1.1,5596,2019-03-25 16:01:02:282
4.97,-4.08,7.11,7.14,-4.18,-2.76,0.87,-0.4,-1.1,5598,2019-03-25 16:01:02:284
4.97,-4.08,7.11,7.14,-4.18,-2.76,0.87,-0.4,-1.1,5603,2019-03-25 16:01:02:289
4.97,-4.08,7.11,7.14,-4.18,-2.76,0.87,-0.4,-1.1,5613,2019-03-25 16:01:02:299
4.97,-4.08,7.11,7.14,-4.18,-2.76,0.87,-0.4,-1.1,5614,2019-03-25 16:01:02:300
2.7,-1.72,10.27,3.95,-1.62,0.22,0.43,-2.72,-2.07,5618,2019-03-25 16:01:02:304
2.7,-1.72,10.27,3.95,-1.62,0.22,0.43,-2.72,-2.07,5623,2019-03-25 16:01:02:309
2.7,-1.72,10.27,3.95,-1.62,0.22,0.43,-2.72,-2.07,5629,2019-03-25 16:01:02:315
0.37,-1.04,11.32,1.14,-0.78,0.92,-0.22,-1.06,-2.76,5634,2019-03-25 16:01:02:320
0.37,-1.04,11.32,1.14,-0.78,0.92,-0.22,-1.06,-2.76,5637,2019-03-25 16:01:02:323
0.37,-1.04,11.32,1.14,-0.78,0.92,-0.22,-1.06,-2.76,5643,2019-03-25 16:01:02:329
0.37,-1.04,11.32,1.14,-0.78,0.92,-0.22,-1.06,-2.76,5648,2019-03-25 16:01:02:334
-0.43,-1.45,8.89,0.21,-1.06,-1.65,0.48,0.37,-3.09,5653,2019-03-25 16:01:02:339
-0.43,-1.45,8.89,0.21,-1.06,-1.65,0.48,0.37,-3.09,5659,2019-03-25 16:01:02:345
-0.43,-1.45,8.89,0.21,-1.06,-1.65,0.48,0.37,-3.09,5663,2019-03-25 16:01:02:349
-0.43,-1.45,8.89,0.21,-1.06,-1.65,0.48,0.37,-3.09,5668,2019-03-25 16:01:02:354
-1.01,-0.89,8.55,-0.41,-0.42,-1.95,0.45,0.41,-3.31,5675,2019-03-25 16:01:02:361
-1.01,-0.89,8.55,-0.41,-0.42,-1.95,0.45,0.41,-3.31,5678,2019-03-25 16:01:02:364
-1.01,-0.89,8.55,-0.41,-0.42,-1.95,0.45,0.41,-3.31,5683,2019-03-25 16:01:02:369
-1.01,-0.89,8.55,-0.41,-0.42,-1.95,0.45,0.41,-3.31,5688,2019-03-25 16:01:02:374
-1.01,-0.89,8.55,-0.41,-0.42,-1.95,0.45,0.41,-3.31,5693,2019-03-25 16:01:02:379
-1.01,-0.89,8.55,-0.41,-0.42,-1.95,0.45,0.41,-3.31,5698,2019-03-25 16:01:02:384
-7.4,2.73,9.38,-6.1,3.56,-1.12,-0.24,-0.76,-1.86,5703,2019-03-25 16:01:02:389
-7.4,2.73,9.38,-6.1,3.56,-1.12,-0.24,-0.76,-1.86,5709,2019-03-25 16:01:02:395
-7.4,2.73,9.38,-6.1,3.56,-1.12,-0.24,-0.76,-1.86,5713,2019-03-25 16:01:02:399
-7.4,2.73,9.38,-6.1,3.56,-1.12,-0.24,-0.76,-1.86,5718,2019-03-25 16:01:02:404
-7.4,2.73,9.38,-6.1,3.56,-1.12,-0.24,-0.76,-1.86,5724,2019-03-25 16:01:02:410
-7.4,2.73,9.38,-6.1,3.56,-1.12,-0.24,-0.76,-1.86,5728,2019-03-25 16:01:02:414
-1.53,0.76,11.5,-0.83,1.47,1.12,-0.18,-1.83,-0.61,5733,2019-03-25 16:01:02:419
-1.53,0.76,11.5,-0.83,1.47,1.12,-0.18,-1.83,-0.61,5738,2019-03-25 16:01:02:424
-1.53,0.76,11.5,-0.83,1.47,1.12,-0.18,-1.83,-0.61,5744,2019-03-25 16:01:02:430
-0.14,1.14,9.14,0.27,1.47,0.42,0.24,-1.93,-1.96,5748,2019-03-25 16:01:02:434
-0.14,1.14,9.14,0.27,1.47,0.42,0.24,-1.93,-1.96,5753,2019-03-25 16:01:02:439
-0.14,1.14,9.14,0.27,1.47,0.42,0.24,-1.93,-1.96,5758,2019-03-25 16:01:02:444
-0.14,1.14,9.14,0.27,1.47,0.42,0.24,-1.93,-1.96,5763,2019-03-25 16:01:02:449
-0.39,1.38,8.77,-0.15,1.93,-0.92,0.47,-1.1,-1.92,5768,2019-03-25 16:01:02:454
-0.39,1.38,8.77,-0.15,1.93,-0.92,0.47,-1.1,-1.92,5775,2019-03-25 16:01:02:461
-0.39,1.38,8.77,-0.15,1.93,-0.92,0.47,-1.1,-1.92,5778,2019-03-25 16:01:02:464
-0.46,1.81,9.63,0.06,1.77,-0.1,0.38,-1.48,-1.63,5786,2019-03-25 16:01:02:472
-0.46,1.81,9.63,0.06,1.77,-0.1,0.38,-1.48,-1.63,5788,2019-03-25 16:01:02:474
-0.46,1.81,9.63,0.06,1.77,-0.1,0.38,-1.48,-1.63,5794,2019-03-25 16:01:02:480
-0.46,1.81,9.63,0.06,1.77,-0.1,0.38,-1.48,-1.63,5797,2019-03-25 16:01:02:483
-1.59,2.65,10.07,-0.7,2.03,0.27,0.3,-1.31,-1.45,5802,2019-03-25 16:01:02:488
-1.59,2.65,10.07,-0.7,2.03,0.27,0.3,-1.31,-1.45,5808,2019-03-25 16:01:02:494
-1.59,2.65,10.07,-0.7,2.03,0.27,0.3,-1.31,-1.45,5816,2019-03-25 16:01:02:502
-1.59,2.65,10.07,-0.7,2.03,0.27,0.3,-1.31,-1.45,5818,2019-03-25 16:01:02:504
-2.59,2.93,9.78,-1.34,1.83,0.13,0.39,-0.53,-1.22,5823,2019-03-25 16:01:02:509
-2.59,2.93,9.78,-1.34,1.83,0.13,0.39,-0.53,-1.22,5828,2019-03-25 16:01:02:514
-2.59,2.93,9.78,-1.34,1.83,0.13,0.39,-0.53,-1.22,5836,2019-03-25 16:01:02:522
-2.59,2.93,9.78,-1.34,1.83,0.13,0.39,-0.53,-1.22,5838,2019-03-25 16:01:02:524
-3.13,3.1,9.2,-1.34,1.83,0.13,0.39,-0.53,-1.22,5843,2019-03-25 16:01:02:529
-3.13,3.1,9.2,-1.45,1.49,-0.41,0.37,-0.02,-0.78,5849,2019-03-25 16:01:02:535
-3.13,3.1,9.2,-1.45,1.49,-0.41,0.37,-0.02,-0.78,5853,2019-03-25 16:01:02:539
-3.13,3.1,9.2,-1.45,1.49,-0.41,0.37,-0.02,-0.78,5858,2019-03-25 16:01:02:544
-3.13,3.1,9.2,-1.45,1.49,-0.41,0.37,-0.02,-0.27,5864,2019-03-25 16:01:02:550
-3.32,2.86,9.5,-1.22,0.83,-0.19,0.13,0.06,-0.27,5868,2019-03-25 16:01:02:554
-3.32,2.86,9.5,-1.22,0.83,-0.19,0.13,0.06,-0.27,5873,2019-03-25 16:01:02:559
-3.32,2.86,9.5,-1.22,0.83,-0.19,0.13,0.06,-0.27,5878,2019-03-25 16:01:02:564
-3.32,2.86,9.5,-1.22,0.83,-0.19,0.13,0.06,-0.27,5883,2019-03-25 16:01:02:569
-3.32,2.86,9.5,-1.22,0.83,-0.19,0.13,0.06,-0.27,5888,2019-03-25 16:01:02:574
-3.32,2.86,9.5,-1.22,0.83,-0.19,0.13,0.06,-0.27,5893,2019-03-25 16:01:02:579
-3.49,2.95,10.72,-1.31,0.56,0.89,-0.03,0.19,0.26,5898,2019-03-25 16:01:02:584
-3.49,2.95,10.72,-1.31,0.56,0.89,-0.03,0.19,0.26,5903,2019-03-25 16:01:02:589
-3.49,2.95,10.72,-1.31,0.56,0.89,-0.03,0.19,0.26,5909,2019-03-25 16:01:02:595
-3.49,2.95,10.72,-1.31,0.56,0.89,-0.03,0.19,0.26,5915,2019-03-25 16:01:02:601
-4.51,2.43,10.63,-2.76,-0.06,0.61,0.09,0.43,0.74,5918,2019-03-25 16:01:02:604
-4.51,2.43,10.63,-2.76,-0.06,0.61,0.09,0.43,0.74,5924,2019-03-25 16:01:02:610
-4.51,2.43,10.63,-2.76,-0.06,0.61,0.09,0.43,0.74,5929,2019-03-25 16:01:02:615
-4.51,2.43,10.63,-2.76,-0.06,0.61,0.09,0.43,0.74,5933,2019-03-25 16:01:02:619
-4.51,2.43,10.63,-2.76,-0.06,0.61,0.09,0.43,0.74,5939,2019-03-25 16:01:02:625
-4.51,2.43,10.63,-2.76,-0.06,0.61,0.09,0.43,0.74,5943,2019-03-25 16:01:02:629
-4.51,2.43,10.63,-2.76,-0.06,0.61,0.09,0.43,0.74,5948,2019-03-25 16:01:02:634
-4.81,1.88,11.89,-2.08,-0.68,1.82,0.42,-0.13,1.94,5954,2019-03-25 16:01:02:640
-4.81,1.88,11.89,-2.08,-0.68,1.82,0.42,-0.13,1.94,5958,2019-03-25 16:01:02:644
-5.37,1.92,12.57,-2.08,-0.68,1.82,0.7,-0.21,2.5,5963,2019-03-25 16:01:02:649
-5.37,1.92,12.57,-2.08,-0.68,1.82,0.7,-0.21,2.5,5968,2019-03-25 16:01:02:654
-5.37,1.92,12.57,-2.08,-0.68,1.82,0.7,-0.21,2.5,5973,2019-03-25 16:01:02:659
-5.37,1.92,12.57,-2.08,-0.68,1.82,0.7,-0.21,2.5,5979,2019-03-25 16:01:02:665
-5.37,1.92,12.57,-2.08,-0.68,1.82,0.7,-0.21,2.5,5984,2019-03-25 16:01:02:670
-5.37,1.92,12.57,-2.08,-0.68,1.82,0.7,-0.21,2.5,5987,2019-03-25 16:01:02:673
-4.86,0.86,10.83,-1.2,-1.83,0.24,1.1,-0.14,3.27,5995,2019-03-25 16:01:02:681
-4.86,0.86,10.83,-1.2,-1.83,0.24,1.1,-0.14,3.27,6000,2019-03-25 16:01:02:686
-4.86,0.86,10.83,-1.2,-1.83,0.24,1.1,-0.14,3.27,6003,2019-03-25 16:01:02:689
-4.86,0.86,10.83,-1.2,-1.83,0.24,1.1,-0.14,3.27,6008,2019-03-25 16:01:02:694
-4.86,0.86,10.83,-1.2,-1.83,0.24,1.1,-0.14,3.27,6013,2019-03-25 16:01:02:699
-3.85,0.41,10.93,-0.06,-2.22,0.26,1.44,-0.88,3.97,6018,2019-03-25 16:01:02:704
-3.85,0.41,10.93,-0.06,-2.22,0.26,1.44,-0.88,3.97,6024,2019-03-25 16:01:02:710
-3.85,0.41,10.93,-0.06,-2.22,0.26,1.44,-0.88,3.97,6028,2019-03-25 16:01:02:714
-2.69,0.28,9.96,0.87,-2.22,-0.7,1.64,-1.21,4.58,6035,2019-03-25 16:01:02:721
-2.69,0.28,9.96,0.87,-2.22,-0.7,1.64,-1.21,4.58,6038,2019-03-25 16:01:02:724
-2.69,0.28,9.96,0.87,-2.22,-0.7,1.64,-1.21,4.58,6043,2019-03-25 16:01:02:729
-1.72,-1.23,7.82,1.44,-3.48,-2.67,1.95,-1.31,5.17,6048,2019-03-25 16:01:02:734
-1.72,-1.23,7.82,1.44,-3.48,-2.67,1.95,-1.31,5.17,6053,2019-03-25 16:01:02:739
-1.72,-1.23,7.82,1.44,-3.48,-2.67,1.95,-1.31,5.17,6058,2019-03-25 16:01:02:744
-1.72,-1.23,7.82,1.44,-3.48,-2.67,1.95,-1.31,5.17,6063,2019-03-25 16:01:02:749
2.87,-3.2,4.67,5.21,-4.95,-5.31,1.98,-1.81,5.82,6068,2019-03-25 16:01:02:754
2.87,-3.2,4.67,5.21,-4.95,-5.31,1.98,-1.81,5.82,6073,2019-03-25 16:01:02:759
2.87,-3.2,4.67,5.21,-4.95,-5.31,1.98,-1.81,5.82,6078,2019-03-25 16:01:02:764
2.87,-3.2,4.67,5.21,-4.95,-5.31,1.98,-1.81,5.82,6085,2019-03-25 16:01:02:771
2.87,-3.2,4.67,5.21,-4.95,-5.31,1.98,-1.81,5.82,6088,2019-03-25 16:01:02:774
2.82,-4.28,8.11,4.05,-5.25,-1.5,1.62,-2.48,5.89,6093,2019-03-25 16:01:02:779
2.82,-4.28,8.11,4.05,-5.25,-1.5,1.62,-2.48,5.89,6098,2019-03-25 16:01:02:784
2.82,-4.28,8.11,4.05,-5.25,-1.5,1.25,-0.48,5.38,6103,2019-03-25 16:01:02:789
2.82,-4.28,8.11,4.05,-5.25,-1.5,1.25,-0.48,5.38,6108,2019-03-25 16:01:02:794
2.82,-4.28,8.11,4.05,-5.25,-1.5,1.25,-0.48,5.38,6112,2019-03-25 16:01:02:798
2.82,-4.28,8.11,4.05,-5.25,-1.5,1.25,-0.48,5.38,6118,2019-03-25 16:01:02:804
2.82,-4.28,8.11,4.05,-5.25,-1.5,1.25,-0.48,5.38,6124,2019-03-25 16:01:02:810
2.82,-4.28,8.11,4.05,-5.25,-1.5,1.25,-0.48,5.38,6128,2019-03-25 16:01:02:814
8.96,-5.66,7.44,8.24,-4.62,-1.78,1.18,2.02,5.23,6136,2019-03-25 16:01:02:822
8.96,-5.66,7.44,8.24,-4.62,-1.78,1.18,2.02,5.23,6138,2019-03-25 16:01:02:824
8.96,-5.66,7.44,8.24,-4.62,-1.78,1.18,2.02,5.23,6144,2019-03-25 16:01:02:830
8.96,-5.66,7.44,8.24,-4.62,-1.78,1.18,2.02,5.23,6148,2019-03-25 16:01:02:834
8.44,-2.68,6.31,6.89,-0.93,-2.53,0.8,2.06,4.67,6153,2019-03-25 16:01:02:839
8.44,-2.68,6.31,6.89,-0.93,-2.53,0.8,2.06,4.67,6158,2019-03-25 16:01:02:844
8.44,-2.68,6.31,6.89,-0.93,-2.53,0.8,2.06,4.67,6164,2019-03-25 16:01:02:850
8.44,-2.68,6.31,6.89,-0.93,-2.53,0.8,2.06,4.67,6168,2019-03-25 16:01:02:854
7.66,-0.34,8.24,5.04,1.89,-0.22,0.1,0.24,3.11,6174,2019-03-25 16:01:02:860
7.66,-0.34,8.24,5.04,1.89,-0.22,0.1,0.24,3.11,6179,2019-03-25 16:01:02:865
7.66,-0.34,8.24,5.04,1.89,-0.22,0.1,0.24,3.11,6184,2019-03-25 16:01:02:870
7.66,-0.34,8.24,5.04,1.89,-0.22,-0.38,-0.62,1.89,6188,2019-03-25 16:01:02:874
7.66,-0.34,8.24,5.04,1.89,-0.22,-0.38,-0.62,1.89,6193,2019-03-25 16:01:02:879
7.66,-0.34,8.24,5.04,1.89,-0.22,-0.38,-0.62,1.89,6198,2019-03-25 16:01:02:884
7.66,-0.34,8.24,5.04,1.89,-0.22,-0.38,-0.62,1.89,6204,2019-03-25 16:01:02:890
7.66,-0.34,8.24,5.04,1.89,-0.22,-0.38,-0.62,1.89,6208,2019-03-25 16:01:02:894
4.16,1.58,12.89,-0.3,4.07,4.26,-0.64,-0.16,0.91,6213,2019-03-25 16:01:02:899
4.16,1.58,12.89,-0.3,4.07,4.26,-0.64,-0.16,0.91,6218,2019-03-25 16:01:02:904
4.16,1.58,12.89,-0.3,4.07,4.26,-0.64,-0.16,0.91,6223,2019-03-25 16:01:02:909
4.16,1.58,12.89,-0.3,4.07,4.26,-0.64,-0.16,0.91,6228,2019-03-25 16:01:02:914
2.51,1.13,10.48,-2.17,3.66,1.67,-0.64,1.66,0.53,6233,2019-03-25 16:01:02:919
2.51,1.13,10.48,-2.17,3.66,1.67,-0.64,1.66,0.53,6238,2019-03-25 16:01:02:924
2.51,1.13,10.48,-2.17,3.66,1.67,-0.64,1.66,0.53,6244,2019-03-25 16:01:02:930
0.66,1.97,13.54,-2.99,3.71,2.83,0.35,3.15,0.38,6248,2019-03-25 16:01:02:934
0.66,1.97,13.54,-2.99,3.71,2.83,0.35,3.15,0.38,6253,2019-03-25 16:01:02:939
0.66,1.97,13.54,-2.99,3.71,2.83,0.35,3.15,0.38,6258,2019-03-25 16:01:02:944
0.66,1.97,13.54,-2.99,3.71,2.83,0.35,3.15,0.38,6263,2019-03-25 16:01:02:949
0.67,1.74,12.96,-3.09,3.43,2.8,0.65,3.9,0.68,6270,2019-03-25 16:01:02:956
0.67,1.74,12.96,-3.09,3.43,2.8,0.65,3.9,0.68,6273,2019-03-25 16:01:02:959
0.67,1.74,12.96,-3.09,3.43,2.8,0.65,3.9,0.68,6278,2019-03-25 16:01:02:964
0.67,1.74,12.96,-3.09,3.43,2.8,0.65,3.9,0.68,6284,2019-03-25 16:01:02:970
0.67,1.74,12.96,-3.09,3.43,2.8,0.65,3.9,0.68,6288,2019-03-25 16:01:02:974
1.67,0.21,8.56,-1.1,1.18,-1.78,1.02,5.41,1.51,6294,2019-03-25 16:01:02:980
1.67,0.21,8.56,-1.1,1.18,-1.78,1.02,5.41,1.51,6298,2019-03-25 16:01:02:984
1.67,0.21,8.56,-1.1,1.18,-1.78,1.02,5.41,1.51,6303,2019-03-25 16:01:02:989
1.67,0.21,8.56,-1.1,1.18,-1.78,1.02,5.41,1.51,6310,2019-03-25 16:01:02:996
1.67,0.21,8.56,-1.1,1.18,-1.78,1.02,5.41,1.51,6313,2019-03-25 16:01:02:999
0.33,0.37,9.43,-1.65,0.47,-0.8,1.5,2.99,1.9,6318,2019-03-25 16:01:03:004
0.33,0.37,9.43,-1.65,0.47,-0.8,1.5,2.99,1.9,6325,2019-03-25 16:01:03:011
0.33,0.37,9.43,-1.65,0.47,-0.8,1.5,2.99,1.9,6328,2019-03-25 16:01:03:014
1.41,0.08,10.42,0.12,-0.75,0.04,1.46,1.89,1.72,6333,2019-03-25 16:01:03:019
1.41,0.08,10.42,0.12,-0.75,0.04,1.46,1.89,1.72,6338,2019-03-25 16:01:03:024
1.41,0.08,10.42,0.12,-0.75,0.04,1.46,1.89,1.72,6344,2019-03-25 16:01:03:030
0.38,1.07,13.41,0.71,-0.67,0.71,-0.01,2.58,1.52,6348,2019-03-25 16:01:03:034
0.38,1.07,13.41,0.71,-0.67,0.71,-0.01,2.58,1.52,6353,2019-03-25 16:01:03:039
0.38,1.07,13.41,0.71,-0.67,0.71,-0.01,2.58,1.52,6358,2019-03-25 16:01:03:044
0.38,1.07,13.41,0.71,-0.67,0.71,-0.01,2.58,1.52,6363,2019-03-25 16:01:03:049
-0.24,1.34,14.54,0.01,-0.07,3.2,-0.56,1.56,0.82,6368,2019-03-25 16:01:03:054
-0.24,1.34,14.54,0.01,-0.07,3.2,-0.56,1.56,0.82,6373,2019-03-25 16:01:03:059
-0.24,1.34,14.54,0.01,-0.07,3.2,-0.56,1.56,0.82,6379,2019-03-25 16:01:03:065
-2.58,0.89,18.02,-1.71,-0.43,6.07,0.0,0.96,-0.12,6383,2019-03-25 16:01:03:069
-2.58,0.89,18.02,-1.71,-0.43,6.07,0.0,0.96,-0.12,6388,2019-03-25 16:01:03:074
-2.58,0.89,18.02,-1.71,-0.43,6.07,0.0,0.96,-0.12,6393,2019-03-25 16:01:03:079
-2.58,0.89,18.02,-1.71,-0.43,6.07,0.0,0.96,-0.12,6398,2019-03-25 16:01:03:084
-2.58,0.89,18.02,-1.71,-0.43,6.07,0.0,0.96,-0.12,6403,2019-03-25 16:01:03:089
-2.58,0.89,18.02,-1.71,-0.43,6.07,0.0,0.96,-0.12,6408,2019-03-25 16:01:03:094
-2.58,0.89,18.02,-1.71,-0.43,6.07,0.0,0.96,-0.12,6413,2019-03-25 16:01:03:099
-4.91,0.34,20.46,-3.3,-0.92,7.89,0.88,1.91,-0.26,6418,2019-03-25 16:01:03:104
-4.91,0.34,20.46,-3.3,-0.92,7.89,0.88,1.91,-0.26,6424,2019-03-25 16:01:03:110
-4.91,0.34,20.46,-3.3,-0.92,7.89,0.88,1.91,-0.26,6428,2019-03-25 16:01:03:114
-7.0,-0.87,23.12,-4.46,-2.26,9.57,2.55,2.53,0.09,6436,2019-03-25 16:01:03:122
-7.0,-0.87,23.12,-4.46,-2.26,9.57,2.55,2.53,0.09,6438,2019-03-25 16:01:03:124
-7.0,-0.87,23.12,-4.46,-2.26,9.57,2.55,2.53,0.09,6443,2019-03-25 16:01:03:129
-7.0,-0.87,23.12,-4.46,-2.26,9.57,2.55,2.53,0.09,6448,2019-03-25 16:01:03:134
-4.22,-1.3,17.78,-0.84,-3.08,3.73,4.79,4.39,1.49,6453,2019-03-25 16:01:03:139
-4.22,-1.3,17.78,-0.84,-3.08,3.73,4.79,4.39,1.49,6458,2019-03-25 16:01:03:144
-1.38,0.03,11.0,2.48,-2.41,-2.32,6.51,5.49,2.7,6464,2019-03-25 16:01:03:150
-1.38,0.03,11.0,2.48,-2.41,-2.32,6.51,5.49,2.7,6468,2019-03-25 16:01:03:154
-1.38,0.03,11.0,2.48,-2.41,-2.32,6.51,5.49,2.7,6474,2019-03-25 16:01:03:160
-1.38,0.03,11.0,2.48,-2.41,-2.32,6.51,5.49,2.7,6477,2019-03-25 16:01:03:163
-1.43,0.59,7.18,2.76,-2.69,-5.22,6.72,4.67,2.57,6487,2019-03-25 16:01:03:173
-1.43,0.59,7.18,2.76,-2.69,-5.22,6.72,4.67,2.57,6487,2019-03-25 16:01:03:173
-1.43,0.59,7.18,2.76,-2.69,-5.22,6.72,4.67,2.57,6494,2019-03-25 16:01:03:180
-1.43,0.59,7.18,2.76,-2.69,-5.22,6.72,4.67,2.57,6498,2019-03-25 16:01:03:184
1.1,1.32,2.79,5.17,-2.62,-8.36,6.45,4.41,2.59,6503,2019-03-25 16:01:03:189
1.1,1.32,2.79,5.17,-2.62,-8.36,6.45,4.41,2.59,6508,2019-03-25 16:01:03:194
1.1,1.32,2.79,5.17,-2.62,-8.36,6.45,4.41,2.59,6515,2019-03-25 16:01:03:201
1.1,1.32,2.79,5.17,-2.62,-8.36,6.45,4.41,2.59,6518,2019-03-25 16:01:03:204
3.1,2.69,-1.08,6.75,-1.85,-10.38,6.09,4.72,2.66,6524,2019-03-25 16:01:03:210
3.1,2.69,-1.08,6.75,-1.85,-10.38,6.09,4.72,2.66,6528,2019-03-25 16:01:03:214
3.1,2.69,-1.08,6.75,-1.85,-10.38,6.09,4.72,2.66,6534,2019-03-25 16:01:03:220
3.1,2.69,-1.08,6.75,-1.85,-10.38,6.09,4.72,2.66,6538,2019-03-25 16:01:03:224
3.1,2.69,-1.08,6.75,-1.85,-10.38,6.09,4.72,2.66,6542,2019-03-25 16:01:03:228
5.16,3.2,-3.52,8.18,-1.62,-10.67,5.18,5.21,2.02,6548,2019-03-25 16:01:03:234
5.16,3.2,-3.52,8.18,-1.62,-10.67,5.18,5.21,2.02,6554,2019-03-25 16:01:03:240
5.16,3.2,-3.52,8.18,-1.62,-10.67,5.18,5.21,2.02,6558,2019-03-25 16:01:03:244
5.16,3.2,-3.52,8.18,-1.62,-10.67,5.18,5.21,2.02,6564,2019-03-25 16:01:03:250
5.16,3.2,-3.52,8.18,-1.62,-10.67,5.18,5.21,2.02,6568,2019-03-25 16:01:03:254
6.03,4.37,-5.08,8.2,-0.45,-9.84,3.83,5.87,1.28,6575,2019-03-25 16:01:03:261
6.03,4.37,-5.08,8.2,-0.45,-9.84,3.83,5.87,1.28,6578,2019-03-25 16:01:03:264
6.03,4.37,-5.08,8.2,-0.45,-9.84,3.83,5.87,1.28,6584,2019-03-25 16:01:03:270
6.03,4.37,-5.08,8.2,-0.45,-9.84,3.83,5.87,1.28,6588,2019-03-25 16:01:03:274
6.03,4.37,-5.08,8.2,-0.45,-9.84,3.83,5.87,1.28,6593,2019-03-25 16:01:03:279
6.03,4.37,-5.08,8.2,-0.45,-9.84,3.83,5.87,1.28,6598,2019-03-25 16:01:03:284
4.48,4.8,-5.68,5.7,0.14,-7.93,2.58,5.91,0.47,6603,2019-03-25 16:01:03:289
4.48,4.8,-5.68,5.7,0.14,-7.93,2.58,5.91,0.47,6609,2019-03-25 16:01:03:295
4.48,4.8,-5.68,5.7,0.14,-7.93,2.58,5.91,0.47,6613,2019-03-25 16:01:03:299
4.48,4.8,-5.68,5.7,0.14,-7.93,2.58,5.91,0.47,6622,2019-03-25 16:01:03:308
4.48,4.8,-5.68,5.7,0.14,-7.93,2.58,5.91,0.47,6622,2019-03-25 16:01:03:308
4.48,4.8,-5.68,5.7,0.14,-7.93,2.58,5.91,0.47,6628,2019-03-25 16:01:03:314
7.11,3.89,-5.58,3.67,0.17,-3.68,0.7,2.3,-0.77,6633,2019-03-25 16:01:03:319
7.11,3.89,-5.58,3.67,0.17,-3.68,0.7,2.3,-0.77,6638,2019-03-25 16:01:03:324
7.11,3.89,-5.58,3.67,0.17,-3.68,0.7,2.3,-0.77,6643,2019-03-25 16:01:03:329
7.11,3.89,-5.58,3.67,0.17,-3.68,0.7,2.3,-0.77,6648,2019-03-25 16:01:03:334
8.4,0.82,-0.41,5.48,-2.71,3.84,-1.2,0.03,-2.55,6654,2019-03-25 16:01:03:340
8.4,0.82,-0.41,5.48,-2.71,3.84,-1.2,0.03,-2.55,6658,2019-03-25 16:01:03:344
8.4,0.82,-0.41,5.48,-2.71,3.84,-1.2,0.03,-2.55,6664,2019-03-25 16:01:03:350
8.4,0.82,-0.41,5.48,-2.71,3.84,-1.2,0.03,-2.55,6668,2019-03-25 16:01:03:354
2.43,-1.18,2.88,-0.91,-3.39,6.8,-1.72,0.23,-5.06,6675,2019-03-25 16:01:03:361
2.43,-1.18,2.88,-0.91,-3.39,6.8,-1.72,0.23,-5.06,6679,2019-03-25 16:01:03:365
2.43,-1.18,2.88,-0.91,-3.39,6.8,-1.72,0.23,-5.06,6684,2019-03-25 16:01:03:370
2.43,-1.18,2.88,-0.91,-3.39,6.8,-1.72,0.23,-5.06,6688,2019-03-25 16:01:03:374
-3.59,-1.09,5.06,-6.11,-2.16,8.22,-0.99,0.51,-6.33,6694,2019-03-25 16:01:03:380
-3.59,-1.09,5.06,-6.11,-2.16,8.22,-0.99,0.51,-6.33,6698,2019-03-25 16:01:03:384
-3.59,-1.09,5.06,-6.11,-2.16,8.22,-0.99,0.51,-6.33,6702,2019-03-25 16:01:03:388
-3.59,-1.09,5.06,-6.11,-2.16,8.22,-0.99,0.51,-6.33,6708,2019-03-25 16:01:03:394
-3.59,-1.09,5.06,-6.11,-2.16,8.22,-0.99,0.51,-6.33,6714,2019-03-25 16:01:03:400
-12.52,0.5,3.0,-13.29,0.58,5.36,0.38,0.29,-6.96,6717,2019-03-25 16:01:03:403
-12.52,0.5,3.0,-13.29,0.58,5.36,0.38,0.29,-6.96,6723,2019-03-25 16:01:03:409
-12.52,0.5,3.0,-13.29,0.58,5.36,0.38,0.29,-6.96,6728,2019-03-25 16:01:03:414
-24.09,3.61,0.56,-22.04,4.57,2.17,0.74,-0.95,-6.81,6736,2019-03-25 16:01:03:422
-24.09,3.61,0.56,-22.04,4.57,2.17,0.74,-0.95,-6.81,6738,2019-03-25 16:01:03:424
-24.09,3.61,0.56,-22.04,4.57,2.17,0.74,-0.95,-6.81,6743,2019-03-25 16:01:03:429
-24.09,3.61,0.56,-22.04,4.57,2.17,0.74,-0.95,-6.81,6748,2019-03-25 16:01:03:434
-35.38,5.25,3.43,-29.48,6.61,3.82,0.12,-1.96,-4.97,6752,2019-03-25 16:01:03:438
-35.38,5.25,3.43,-29.48,6.61,3.82,0.12,-1.96,-4.97,6758,2019-03-25 16:01:03:444
-35.38,5.25,3.43,-29.48,6.61,3.82,0.12,-1.96,-4.97,6763,2019-03-25 16:01:03:449
-35.38,5.25,3.43,-29.48,6.61,3.82,0.12,-1.96,-4.97,6768,2019-03-25 16:01:03:454
-39.47,3.19,5.77,-29.54,4.52,4.7,0.0,-1.73,-1.2,6779,2019-03-25 16:01:03:465
-39.47,3.19,5.77,-29.54,4.52,4.7,0.0,-1.73,-1.2,6780,2019-03-25 16:01:03:466
-39.47,3.19,5.77,-29.54,4.52,4.7,0.0,-1.73,-1.2,6783,2019-03-25 16:01:03:469
-39.47,3.19,5.77,-29.54,4.52,4.7,0.0,-1.73,-1.2,6788,2019-03-25 16:01:03:474
-39.47,3.19,5.77,-29.54,4.52,4.7,0.0,-1.73,-1.2,6793,2019-03-25 16:01:03:479
-39.47,3.19,5.77,-29.54,4.52,4.7,0.0,-1.73,-1.2,6798,2019-03-25 16:01:03:484
-31.63,8.07,4.87,-18.51,8.39,2.55,0.3,-1.05,2.11,6804,2019-03-25 16:01:03:490
-31.63,8.07,4.87,-18.51,8.39,2.55,0.3,-1.05,2.11,6808,2019-03-25 16:01:03:494
-31.63,8.07,4.87,-18.51,8.39,2.55,0.3,-1.05,2.11,6813,2019-03-25 16:01:03:499
-23.99,5.55,3.54,-8.39,4.63,0.24,0.27,-0.67,3.32,6818,2019-03-25 16:01:03:504
-23.99,5.55,3.54,-8.39,4.63,0.24,0.27,-0.67,3.32,6829,2019-03-25 16:01:03:515
-23.99,5.55,3.54,-8.39,4.63,0.24,0.27,-0.67,3.32,6829,2019-03-25 16:01:03:515
-23.99,5.55,3.54,-8.39,4.63,0.24,0.27,-0.67,3.32,6833,2019-03-25 16:01:03:519
-23.99,5.55,3.54,-8.39,4.63,0.24,0.27,-0.67,3.32,6838,2019-03-25 16:01:03:524
-23.99,5.55,3.54,-8.39,4.63,0.24,0.27,-0.67,3.32,6843,2019-03-25 16:01:03:529
-14.18,2.28,2.83,3.25,0.14,-1.02,0.22,-0.66,4.39,6847,2019-03-25 16:01:03:533
-14.18,2.28,2.83,3.25,0.14,-1.02,0.22,-0.66,4.39,6853,2019-03-25 16:01:03:539
-14.18,2.28,2.83,3.25,0.14,-1.02,0.22,-0.66,4.39,6859,2019-03-25 16:01:03:545
-14.18,2.28,2.83,3.25,0.14,-1.02,0.22,-0.66,4.39,6864,2019-03-25 16:01:03:550
-5.62,0.78,2.66,12.68,-2.49,-1.46,0.19,-0.8,4.92,6870,2019-03-25 16:01:03:556
-5.62,0.78,2.66,12.68,-2.49,-1.46,0.19,-0.8,4.92,6875,2019-03-25 16:01:03:561
-5.62,0.78,2.66,12.68,-2.49,-1.46,0.19,-0.8,4.92,6878,2019-03-25 16:01:03:564
-5.62,0.78,2.66,12.68,-2.49,-1.46,0.19,-0.8,4.92,6883,2019-03-25 16:01:03:569
1.47,0.44,3.25,19.5,-3.91,-0.91,0.36,-0.6,4.81,6888,2019-03-25 16:01:03:574
1.47,0.44,3.25,19.5,-3.91,-0.91,0.36,-0.6,4.81,6893,2019-03-25 16:01:03:579
1.47,0.44,3.25,19.5,-3.91,-0.91,0.36,-0.6,4.81,6898,2019-03-25 16:01:03:584
7.34,0.76,2.01,24.05,-4.41,-1.71,0.87,0.2,3.63,6903,2019-03-25 16:01:03:589
7.34,0.76,2.01,24.05,-4.41,-1.71,0.87,0.2,3.63,6909,2019-03-25 16:01:03:595
7.34,0.76,2.01,24.05,-4.41,-1.71,0.87,0.2,3.63,6914,2019-03-25 16:01:03:600
10.73,2.26,0.01,25.25,-3.28,-2.98,1.53,0.76,1.67,6918,2019-03-25 16:01:03:604
10.73,2.26,0.01,25.25,-3.28,-2.98,1.53,0.76,1.67,6925,2019-03-25 16:01:03:611
10.73,2.26,0.01,25.25,-3.28,-2.98,1.53,0.76,1.67,6930,2019-03-25 16:01:03:616
10.73,2.26,0.01,25.25,-3.28,-2.98,1.53,0.76,1.67,6934,2019-03-25 16:01:03:620
11.22,2.63,-1.91,22.72,-2.73,-4.18,1.76,1.77,-0.35,6938,2019-03-25 16:01:03:624
11.22,2.63,-1.91,22.72,-2.73,-4.18,1.76,1.77,-0.35,6943,2019-03-25 16:01:03:629
11.22,2.63,-1.91,22.72,-2.73,-4.18,1.76,1.77,-0.35,6948,2019-03-25 16:01:03:634
7.56,0.35,-4.13,15.36,-4.05,-5.26,1.59,2.49,-2.08,6953,2019-03-25 16:01:03:639
7.56,0.35,-4.13,15.36,-4.05,-5.26,1.59,2.49,-2.08,6958,2019-03-25 16:01:03:644
7.56,0.35,-4.13,15.36,-4.05,-5.26,1.59,2.49,-2.08,6963,2019-03-25 16:01:03:649
7.56,0.35,-4.13,15.36,-4.05,-5.26,1.59,2.49,-2.08,6968,2019-03-25 16:01:03:654
3.07,0.5,-4.92,7.15,-2.77,-4.65,1.12,2.15,-3.18,6973,2019-03-25 16:01:03:659
3.07,0.5,-4.92,7.15,-2.77,-4.65,1.12,2.15,-3.18,6978,2019-03-25 16:01:03:664
3.07,0.5,-4.92,7.15,-2.77,-4.65,1.12,2.15,-3.18,6983,2019-03-25 16:01:03:669
3.07,0.5,-4.92,7.15,-2.77,-4.65,1.12,2.15,-3.18,6988,2019-03-25 16:01:03:674
3.07,0.5,-4.92,7.15,-2.77,-4.65,1.12,2.15,-3.18,6993,2019-03-25 16:01:03:679
3.07,0.5,-4.92,7.15,-2.77,-4.65,1.12,2.15,-3.18,6998,2019-03-25 16:01:03:684
-1.75,0.78,-5.16,-0.37,-0.97,-3.7,0.38,1.18,-3.87,7003,2019-03-25 16:01:03:689
-1.75,0.78,-5.16,-0.37,-0.97,-3.7,0.38,1.18,-3.87,7008,2019-03-25 16:01:03:694
-1.75,0.78,-5.16,-0.37,-0.97,-3.7,0.38,1.18,-3.87,7013,2019-03-25 16:01:03:699
-6.01,2.09,-2.79,-6.22,1.62,-0.83,-0.54,-0.32,-4.19,7018,2019-03-25 16:01:03:704
-6.01,2.09,-2.79,-6.22,1.62,-0.83,-0.54,-0.32,-4.19,7023,2019-03-25 16:01:03:709
-6.01,2.09,-2.79,-6.22,1.62,-0.83,-0.54,-0.32,-4.19,7028,2019-03-25 16:01:03:714
-9.77,1.48,0.6,-10.39,1.91,2.44,-1.24,-0.98,-4.41,7033,2019-03-25 16:01:03:719
-9.77,1.48,0.6,-10.39,1.91,2.44,-1.24,-0.98,-4.41,7038,2019-03-25 16:01:03:724
-9.77,1.48,0.6,-10.39,1.91,2.44,-1.24,-0.98,-4.41,7042,2019-03-25 16:01:03:728
-9.77,1.48,0.6,-10.39,1.91,2.44,-1.24,-0.98,-4.41,7048,2019-03-25 16:01:03:734
-9.77,1.48,0.6,-10.39,1.91,2.44,-1.24,-0.98,-4.41,7053,2019-03-25 16:01:03:739
-9.77,1.48,0.6,-10.39,1.91,2.44,-1.24,-0.98,-4.41,7058,2019-03-25 16:01:03:744
-22.55,2.12,2.84,-21.73,3.25,4.33,-1.23,-0.53,-5.13,7063,2019-03-25 16:01:03:749
-22.55,2.12,2.84,-21.73,3.25,4.33,-1.23,-0.53,-5.13,7068,2019-03-25 16:01:03:754
-22.55,2.12,2.84,-21.73,3.25,4.33,-1.23,-0.53,-5.13,7073,2019-03-25 16:01:03:759
-22.55,2.12,2.84,-21.73,3.25,4.33,-1.23,-0.53,-5.13,7078,2019-03-25 16:01:03:764
-22.55,2.12,2.84,-21.73,3.25,4.33,-1.23,-0.53,-5.13,7083,2019-03-25 16:01:03:769
-22.55,2.12,2.84,-21.73,3.25,4.33,-1.23,-0.53,-5.13,7088,2019-03-25 16:01:03:774
-33.83,4.94,3.01,-26.13,5.98,4.23,-0.7,0.12,-1.98,7094,2019-03-25 16:01:03:780
-33.83,4.94,3.01,-26.13,5.98,4.23,-0.7,0.12,-1.98,7099,2019-03-25 16:01:03:785
-33.83,4.94,3.01,-26.13,5.98,4.23,-0.7,0.12,-1.98,7104,2019-03-25 16:01:03:790
-33.83,4.94,3.01,-26.13,5.98,4.23,-0.7,0.12,-1.98,7109,2019-03-25 16:01:03:795
-33.83,4.94,3.01,-26.13,5.98,4.23,-0.7,0.12,-1.98,7113,2019-03-25 16:01:03:799
-29.84,5.09,4.59,-18.25,5.39,5.17,-0.49,-0.71,0.4,7118,2019-03-25 16:01:03:804
-29.84,5.09,4.59,-18.25,5.39,5.17,-0.49,-0.71,0.4,7123,2019-03-25 16:01:03:809
-29.84,5.09,4.59,-18.25,5.39,5.17,-0.49,-0.71,0.4,7128,2019-03-25 16:01:03:814
-29.84,5.09,4.59,-18.25,5.39,5.17,-0.49,-0.9,2.34,7133,2019-03-25 16:01:03:819
-21.39,3.04,4.02,-6.69,2.39,3.78,0.12,-0.9,2.34,7138,2019-03-25 16:01:03:824
-21.39,3.04,4.02,-6.69,2.39,3.78,0.12,-0.9,2.34,7143,2019-03-25 16:01:03:829
-21.39,3.04,4.02,-6.69,2.39,3.78,0.12,-0.9,2.34,7148,2019-03-25 16:01:03:834
-14.12,1.85,3.12,2.62,0.11,2.13,0.34,-0.17,3.29,7153,2019-03-25 16:01:03:839
-14.12,1.85,3.12,2.62,0.11,2.13,0.34,-0.17,3.29,7158,2019-03-25 16:01:03:844
-14.12,1.85,3.12,2.62,0.11,2.13,0.34,-0.17,3.29,7163,2019-03-25 16:01:03:849
-14.12,1.85,3.12,2.62,0.11,2.13,0.34,-0.17,3.29,7168,2019-03-25 16:01:03:854
-14.12,1.85,3.12,2.62,0.11,2.13,0.34,-0.17,3.29,7173,2019-03-25 16:01:03:859
-14.12,1.85,3.12,2.62,0.11,2.13,0.34,-0.17,3.29,7178,2019-03-25 16:01:03:864
-8.22,1.53,1.76,9.49,-1.27,0.25,0.35,0.81,3.64,7183,2019-03-25 16:01:03:869
-8.22,1.53,1.76,9.49,-1.27,0.25,0.35,0.81,3.64,7188,2019-03-25 16:01:03:874
0.49,1.48,1.53,15.13,-2.26,-0.32,0.27,1.06,3.52,7193,2019-03-25 16:01:03:879
0.49,1.48,1.53,15.13,-2.26,-0.32,0.27,1.06,3.52,7198,2019-03-25 16:01:03:884
0.49,1.48,1.53,15.13,-2.26,-0.32,0.27,1.06,3.52,7203,2019-03-25 16:01:03:889
0.49,1.48,1.53,15.13,-2.26,-0.32,0.27,1.06,3.52,7209,2019-03-25 16:01:03:895
4.23,1.48,0.86,20.79,-2.85,-1.29,0.41,0.98,3.05,7213,2019-03-25 16:01:03:899
4.23,1.48,0.86,20.79,-2.85,-1.29,0.41,0.98,3.05,7219,2019-03-25 16:01:03:905
4.23,1.48,0.86,20.79,-2.85,-1.29,0.41,0.98,3.05,7228,2019-03-25 16:01:03:914
10.61,2.48,0.15,25.24,-2.13,-1.84,0.69,0.63,1.47,7231,2019-03-25 16:01:03:917
10.61,2.48,0.15,25.24,-2.13,-1.84,0.69,0.63,1.47,7236,2019-03-25 16:01:03:922
10.61,2.48,0.15,25.24,-2.13,-1.84,0.69,0.63,1.47,7238,2019-03-25 16:01:03:924
10.61,2.48,0.15,25.24,-2.13,-1.84,0.69,0.63,1.47,7243,2019-03-25 16:01:03:929
10.61,2.48,0.15,25.24,-2.13,-1.84,0.69,0.63,1.47,7249,2019-03-25 16:01:03:935
12.84,0.74,-0.69,24.38,-3.67,-2.26,0.9,0.65,-0.74,7253,2019-03-25 16:01:03:939
12.84,0.74,-0.69,24.38,-3.67,-2.26,0.9,0.65,-0.74,7258,2019-03-25 16:01:03:944
12.84,0.74,-0.69,24.38,-3.67,-2.26,0.9,0.65,-0.74,7267,2019-03-25 16:01:03:953
12.84,0.74,-0.69,24.38,-3.67,-2.26,0.9,0.65,-0.74,7267,2019-03-25 16:01:03:953
6.96,-2.45,-0.51,15.03,-5.62,-1.65,0.68,0.82,-3.23,7272,2019-03-25 16:01:03:958
6.96,-2.45,-0.51,15.03,-5.62,-1.65,0.68,0.82,-3.23,7280,2019-03-25 16:01:03:966
6.96,-2.45,-0.51,15.03,-5.62,-1.65,0.68,0.82,-3.23,7286,2019-03-25 16:01:03:972
6.96,-2.45,-0.51,15.03,-5.62,-1.65,0.68,0.82,-3.23,7288,2019-03-25 16:01:03:974
6.96,-2.45,-0.51,15.03,-5.62,-1.65,0.68,0.82,-3.23,7294,2019-03-25 16:01:03:980
6.96,-2.45,-0.51,15.03,-5.62,-1.65,0.68,0.82,-3.23,7299,2019-03-25 16:01:03:985
-0.02,-1.51,-0.25,4.99,-3.05,-1.11,0.55,0.04,-4.85,7305,2019-03-25 16:01:03:991
-0.02,-1.51,-0.25,4.99,-3.05,-1.11,0.55,0.04,-4.85,7308,2019-03-25 16:01:03:994
-0.02,-1.51,-0.25,4.99,-3.05,-1.11,0.55,0.04,-4.85,7313,2019-03-25 16:01:03:999
-5.41,0.24,-1.41,-2.73,0.31,-1.92,0.65,-1.2,-5.32,7318,2019-03-25 16:01:04:004
-5.41,0.24,-1.41,-2.73,0.31,-1.92,0.65,-1.2,-5.32,7323,2019-03-25 16:01:04:009
-5.41,0.24,-1.41,-2.73,0.31,-1.92,0.65,-1.2,-5.32,7328,2019-03-25 16:01:04:014
-14.1,1.15,-1.1,-12.31,2.43,-1.45,0.18,-1.95,-4.82,7333,2019-03-25 16:01:04:019
-14.1,1.15,-1.1,-12.31,2.43,-1.45,0.18,-1.95,-4.82,7338,2019-03-25 16:01:04:024
-14.1,1.15,-1.1,-12.31,2.43,-1.45,0.18,-1.95,-4.82,7343,2019-03-25 16:01:04:029
-14.1,1.15,-1.1,-12.31,2.43,-1.45,0.18,-1.95,-4.82,7348,2019-03-25 16:01:04:034
-19.48,-0.12,1.14,-17.34,1.95,0.64,-0.22,-1.78,-3.6,7353,2019-03-25 16:01:04:039
-19.48,-0.12,1.14,-17.34,1.95,0.64,-0.22,-1.78,-3.6,7358,2019-03-25 16:01:04:044
-19.48,-0.12,1.14,-17.34,1.95,0.64,-0.22,-1.78,-3.6,7363,2019-03-25 16:01:04:049
-19.48,-0.12,1.14,-17.34,1.95,0.64,-0.22,-1.78,-3.6,7368,2019-03-25 16:01:04:054
-19.48,-0.12,1.14,-17.34,1.95,0.64,-0.22,-1.78,-3.6,7375,2019-03-25 16:01:04:061
-19.48,-0.12,1.14,-17.34,1.95,0.64,-0.22,-1.78,-3.6,7378,2019-03-25 16:01:04:064
-26.86,0.57,4.09,-23.19,3.16,3.25,-0.3,-0.6,-3.18,7386,2019-03-25 16:01:04:072
-26.86,0.57,4.09,-23.19,3.16,3.25,-0.3,-0.6,-3.18,7388,2019-03-25 16:01:04:074
-26.86,0.57,4.09,-23.19,3.16,3.25,-0.3,-0.6,-3.18,7394,2019-03-25 16:01:04:080
-26.86,0.57,4.09,-23.19,3.16,3.25,-0.3,-0.6,-3.18,7398,2019-03-25 16:01:04:084
-33.66,0.42,4.01,-27.24,3.24,2.99,0.11,0.71,-2.55,7403,2019-03-25 16:01:04:089
-33.66,0.42,4.01,-27.24,3.24,2.99,0.11,0.71,-2.55,7408,2019-03-25 16:01:04:094
-33.66,0.42,4.01,-27.24,3.24,2.99,0.11,0.71,-2.55,7413,2019-03-25 16:01:04:099
-33.88,-1.41,2.89,-23.91,1.41,1.8,0.55,0.5,-0.88,7418,2019-03-25 16:01:04:104
-33.88,-1.41,2.89,-23.91,1.41,1.8,0.55,0.5,-0.88,7423,2019-03-25 16:01:04:109
-33.88,-1.41,2.89,-23.91,1.41,1.8,0.55,0.5,-0.88,7428,2019-03-25 16:01:04:114
-24.69,0.1,0.75,-11.18,2.56,-0.47,0.92,-0.67,1.38,7433,2019-03-25 16:01:04:119
-24.69,0.1,0.75,-11.18,2.56,-0.47,0.92,-0.67,1.38,7438,2019-03-25 16:01:04:124
-24.69,0.1,0.75,-11.18,2.56,-0.47,0.92,-0.67,1.38,7443,2019-03-25 16:01:04:129
-24.69,0.1,0.75,-11.18,2.56,-0.47,0.92,-0.67,1.38,7449,2019-03-25 16:01:04:135
-12.32,-1.04,-0.74,3.8,0.66,-2.22,0.76,-1.71,2.63,7454,2019-03-25 16:01:04:140
-12.32,-1.04,-0.74,3.8,0.66,-2.22,0.76,-1.71,2.63,7458,2019-03-25 16:01:04:144
-12.32,-1.04,-0.74,3.8,0.66,-2.22,0.76,-1.71,2.63,7466,2019-03-25 16:01:04:152
-12.32,-1.04,-0.74,3.8,0.66,-2.22,0.76,-1.71,2.63,7468,2019-03-25 16:01:04:154
-12.32,-1.04,-0.74,3.8,0.66,-2.22,0.76,-1.71,2.63,7473,2019-03-25 16:01:04:159
-12.32,-1.04,-0.74,3.8,0.66,-2.22,0.76,-1.71,2.63,7478,2019-03-25 16:01:04:164
-3.79,-1.27,0.32,13.56,-0.61,-1.5,0.46,-2.35,2.83,7484,2019-03-25 16:01:04:170
-3.79,-1.27,0.32,13.56,-0.61,-1.5,0.46,-2.35,2.83,7488,2019-03-25 16:01:04:174
-3.79,-1.27,0.32,13.56,-0.61,-1.5,0.46,-2.35,2.83,7493,2019-03-25 16:01:04:179
4.84,0.16,-1.15,20.46,-0.39,-2.11,0.43,-1.66,1.93,7501,2019-03-25 16:01:04:187
4.84,0.16,-1.15,20.46,-0.39,-2.11,0.43,-1.66,1.93,7502,2019-03-25 16:01:04:188
4.84,0.16,-1.15,20.46,-0.39,-2.11,0.43,-1.66,1.93,7508,2019-03-25 16:01:04:194
4.84,0.16,-1.15,20.46,-0.39,-2.11,0.43,-1.66,1.93,7514,2019-03-25 16:01:04:200
5.51,0.37,-2.09,21.65,-0.19,-4.07,0.41,-0.78,0.54,7518,2019-03-25 16:01:04:204
5.51,0.37,-2.09,21.65,-0.19,-4.07,0.41,-0.78,0.54,7523,2019-03-25 16:01:04:209
5.51,0.37,-2.09,21.65,-0.19,-4.07,0.41,-0.78,0.54,7528,2019-03-25 16:01:04:214
5.51,0.37,-2.09,21.65,-0.19,-4.07,0.41,-0.78,0.54,7534,2019-03-25 16:01:04:220
5.51,0.37,-2.09,21.65,-0.19,-4.07,0.41,-0.78,0.54,7538,2019-03-25 16:01:04:224
4.6,1.45,-1.65,19.04,0.9,-3.51,0.08,-0.76,-0.85,7543,2019-03-25 16:01:04:229
4.6,1.45,-1.65,19.04,0.9,-3.51,0.08,-0.76,-0.85,7550,2019-03-25 16:01:04:236
4.6,1.45,-1.65,19.04,0.9,-3.51,0.08,-0.76,-0.85,7553,2019-03-25 16:01:04:239
4.6,1.45,-1.65,19.04,0.9,-3.51,0.08,-0.76,-0.85,7558,2019-03-25 16:01:04:244
3.83,2.19,-0.25,16.09,1.75,-1.99,-0.18,-0.67,-1.79,7564,2019-03-25 16:01:04:250
3.83,2.19,-0.25,16.09,1.75,-1.99,-0.18,-0.67,-1.79,7568,2019-03-25 16:01:04:254
3.83,2.19,-0.25,16.09,1.75,-1.99,-0.18,-0.67,-1.79,7575,2019-03-25 16:01:04:261
3.83,2.19,-0.25,16.09,1.75,-1.99,-0.18,-0.67,-1.79,7579,2019-03-25 16:01:04:265
1.36,0.81,0.9,10.93,0.71,-0.47,-0.06,-0.45,-2.36,7583,2019-03-25 16:01:04:269
1.36,0.81,0.9,10.93,0.71,-0.47,-0.06,-0.45,-2.36,7588,2019-03-25 16:01:04:274
1.36,0.81,0.9,10.93,0.71,-0.47,-0.06,-0.45,-2.36,7593,2019-03-25 16:01:04:279
-4.93,0.37,1.49,1.75,0.86,0.43,0.13,-0.51,-2.98,7598,2019-03-25 16:01:04:284
-4.93,0.37,1.49,1.75,0.86,0.43,0.13,-0.51,-2.98,7604,2019-03-25 16:01:04:290
-4.93,0.37,1.49,1.75,0.86,0.43,0.13,-0.51,-2.98,7609,2019-03-25 16:01:04:295
-4.93,0.37,1.49,1.75,0.86,0.43,0.13,-0.51,-2.98,7613,2019-03-25 16:01:04:299
-11.42,-1.49,0.81,-7.17,-0.4,0.05,0.25,-0.9,-3.1,7618,2019-03-25 16:01:04:304
-11.42,-1.49,0.81,-7.17,-0.4,0.05,0.25,-0.9,-3.1,7623,2019-03-25 16:01:04:309
-11.42,-1.49,0.81,-7.17,-0.4,0.05,0.25,-0.9,-3.1,7628,2019-03-25 16:01:04:314
-17.16,-2.75,2.48,-14.18,-1.0,1.64,-0.23,-1.03,-2.94,7634,2019-03-25 16:01:04:320
-17.16,-2.75,2.48,-14.18,-1.0,1.64,-0.23,-1.03,-2.94,7638,2019-03-25 16:01:04:324
-17.16,-2.75,2.48,-14.18,-1.0,1.64,-0.23,-1.03,-2.94,7643,2019-03-25 16:01:04:329
-17.16,-2.75,2.48,-14.18,-1.0,1.64,-0.23,-1.03,-2.94,7648,2019-03-25 16:01:04:334
-23.02,-2.77,5.29,-19.43,-0.45,4.18,-1.04,0.51,-2.7,7653,2019-03-25 16:01:04:339
-23.02,-2.77,5.29,-19.43,-0.45,4.18,-1.04,0.51,-2.7,7658,2019-03-25 16:01:04:344
-23.02,-2.77,5.29,-19.43,-0.45,4.18,-1.04,0.51,-2.7,7663,2019-03-25 16:01:04:349
-23.02,-2.77,5.29,-19.43,-0.45,4.18,-1.04,0.51,-2.7,7668,2019-03-25 16:01:04:354
-27.6,-3.74,6.26,-21.89,-0.98,4.97,-1.24,1.73,-2.09,7673,2019-03-25 16:01:04:359
-27.6,-3.74,6.26,-21.89,-0.98,4.97,-1.24,1.73,-2.09,7678,2019-03-25 16:01:04:364
-27.6,-3.74,6.26,-21.89,-0.98,4.97,-1.24,1.73,-2.09,7683,2019-03-25 16:01:04:369
-27.6,-3.74,6.26,-21.89,-0.98,4.97,-1.24,1.73,-2.09,7688,2019-03-25 16:01:04:374
-27.57,-5.56,6.74,-21.89,-0.98,4.97,-1.24,1.73,-2.09,7694,2019-03-25 16:01:04:380
-27.57,-5.56,6.74,-18.83,-2.45,5.18,-0.83,1.17,-0.79,7699,2019-03-25 16:01:04:385
-27.57,-5.56,6.74,-18.83,-2.45,5.18,-0.83,1.17,-0.79,7702,2019-03-25 16:01:04:388
-27.57,-5.56,6.74,-18.83,-2.45,5.18,-0.83,1.17,-0.79,7709,2019-03-25 16:01:04:395
-27.57,-5.56,6.74,-18.83,-2.45,5.18,-0.83,1.17,-0.79,7713,2019-03-25 16:01:04:399
-19.91,-2.82,6.56,-8.39,0.21,4.22,-0.1,-0.09,1.07,7718,2019-03-25 16:01:04:404
-19.91,-2.82,6.56,-8.39,0.21,4.22,-0.1,-0.09,1.07,7723,2019-03-25 16:01:04:409
-19.91,-2.82,6.56,-8.39,0.21,4.22,-0.1,-0.09,1.07,7728,2019-03-25 16:01:04:414
-12.07,-3.15,3.63,1.39,-0.4,0.53,0.68,-0.76,2.01,7734,2019-03-25 16:01:04:420
-12.07,-3.15,3.63,1.39,-0.4,0.53,0.68,-0.76,2.01,7738,2019-03-25 16:01:04:424
