ACCELEROMETER X (m/s²),ACCELEROMETER Y (m/s²),ACCELEROMETER Z (m/s²),LINEAR ACCELERATION X (m/s²),LINEAR ACCELERATION Y (m/s²),LINEAR ACCELERATION Z (m/s²),GYROSCOPE X (rad/s),GYROSCOPE Y (rad/s),GYROSCOPE Z (rad/s),Time since start in ms ,YYYY-MO-DD HH-MI-SS_SSS
0.7,0.56,9.93,-0.06,0.0,0.0,0.0,0.0,0.0,7,2019-03-25 16:54:47:033
0.76,0.58,9.93,0.0,0.02,0.02,0.0,0.0,0.0,13,2019-03-25 16:54:47:039
0.76,0.58,9.93,0.0,0.02,0.02,0.0,0.0,0.0,17,2019-03-25 16:54:47:043
0.76,0.58,9.93,0.0,0.02,0.02,0.0,0.0,0.0,22,2019-03-25 16:54:47:048
0.76,0.58,9.93,0.0,0.02,0.02,0.0,0.0,0.0,27,2019-03-25 16:54:47:053
0.83,0.69,9.87,0.06,0.11,-0.03,0.0,0.0,0.0,32,2019-03-25 16:54:47:058
0.83,0.69,9.87,0.06,0.11,-0.03,0.0,0.0,0.0,37,2019-03-25 16:54:47:063
0.83,0.69,9.87,0.06,0.11,-0.03,0.0,0.0,0.0,42,2019-03-25 16:54:47:068
0.83,0.69,9.87,0.06,0.11,-0.03,0.0,0.0,0.0,47,2019-03-25 16:54:47:073
0.84,0.71,9.9,0.06,0.11,-0.01,0.0,0.0,0.0,52,2019-03-25 16:54:47:078
0.84,0.71,9.9,0.06,0.11,-0.01,0.0,0.0,0.0,57,2019-03-25 16:54:47:083
0.84,0.71,9.9,0.06,0.11,-0.01,0.0,0.0,0.0,62,2019-03-25 16:54:47:088
0.84,0.71,9.9,0.06,0.11,-0.01,0.0,0.0,0.0,67,2019-03-25 16:54:47:093
0.92,0.73,9.94,0.13,0.1,0.02,0.0,0.0,0.0,72,2019-03-25 16:54:47:098
0.92,0.73,9.94,0.13,0.1,0.02,0.0,0.0,0.0,78,2019-03-25 16:54:47:104
0.92,0.73,9.94,0.13,0.1,0.02,0.0,0.0,0.0,82,2019-03-25 16:54:47:108
0.92,0.73,9.94,0.13,0.1,0.02,0.0,0.0,0.0,87,2019-03-25 16:54:47:113
0.89,0.72,9.88,0.08,0.07,-0.02,0.0,0.0,0.0,92,2019-03-25 16:54:47:118
0.89,0.72,9.88,0.08,0.07,-0.02,0.0,0.0,0.0,97,2019-03-25 16:54:47:123
0.89,0.72,9.88,0.08,0.07,-0.02,0.0,0.0,0.0,102,2019-03-25 16:54:47:128
0.89,0.72,9.88,0.08,0.07,-0.02,0.0,0.0,0.0,107,2019-03-25 16:54:47:133
0.89,0.72,9.88,0.08,0.07,-0.02,0.0,0.0,0.0,112,2019-03-25 16:54:47:138
0.89,0.72,9.88,0.08,0.07,-0.02,0.0,0.0,0.0,117,2019-03-25 16:54:47:143
0.82,0.67,9.9,0.01,0.01,0.0,0.0,0.0,0.0,123,2019-03-25 16:54:47:149
0.82,0.67,9.9,0.01,0.01,0.0,0.0,0.0,0.0,127,2019-03-25 16:54:47:153
0.82,0.67,9.9,0.01,0.01,0.0,0.0,0.0,0.0,132,2019-03-25 16:54:47:158
0.82,0.67,9.9,0.01,0.01,0.0,0.0,0.0,0.0,137,2019-03-25 16:54:47:163
0.82,0.67,9.9,0.01,0.01,0.0,0.0,0.0,0.0,142,2019-03-25 16:54:47:168
0.82,0.67,9.9,0.01,0.01,0.0,0.0,0.0,0.0,147,2019-03-25 16:54:47:173
0.82,0.67,9.9,0.01,0.01,0.0,0.0,0.0,0.0,152,2019-03-25 16:54:47:178
0.82,0.67,9.9,0.01,0.01,0.0,0.0,0.0,0.0,158,2019-03-25 16:54:47:184
0.82,0.77,9.86,0.01,0.08,-0.05,0.0,0.0,0.0,163,2019-03-25 16:54:47:189
0.82,0.77,9.86,0.01,0.08,-0.05,0.0,0.0,0.0,167,2019-03-25 16:54:47:193
0.82,0.77,9.86,0.01,0.08,-0.05,0.0,0.0,0.0,172,2019-03-25 16:54:47:198
0.82,0.77,9.86,0.01,0.08,-0.05,0.0,0.0,0.0,177,2019-03-25 16:54:47:203
0.82,0.77,9.86,0.01,0.08,-0.05,0.0,0.0,0.0,182,2019-03-25 16:54:47:208
0.82,0.77,9.86,0.01,0.08,-0.05,0.0,0.0,0.0,188,2019-03-25 16:54:47:214
0.8,0.69,9.92,-0.01,-0.01,0.0,0.0,0.0,0.0,192,2019-03-25 16:54:47:218
0.8,0.69,9.92,-0.01,-0.01,0.0,0.0,0.0,0.0,197,2019-03-25 16:54:47:223
0.8,0.69,9.92,-0.01,-0.01,0.0,0.0,0.0,0.0,202,2019-03-25 16:54:47:228
0.8,0.69,9.92,-0.01,-0.01,0.0,0.0,0.0,0.0,207,2019-03-25 16:54:47:233
0.8,0.69,9.92,-0.01,-0.01,0.0,0.0,0.0,0.0,212,2019-03-25 16:54:47:238
0.8,0.69,9.92,-0.01,-0.01,0.0,0.0,0.0,0.0,217,2019-03-25 16:54:47:243
0.8,0.69,9.92,-0.01,-0.01,0.0,0.0,0.0,0.0,221,2019-03-25 16:54:47:247
0.83,0.65,9.9,0.0,-0.06,0.0,0.0,0.0,0.0,227,2019-03-25 16:54:47:253
0.83,0.65,9.9,0.0,-0.06,0.0,0.0,0.0,0.0,232,2019-03-25 16:54:47:258
0.83,0.65,9.9,0.0,-0.06,0.0,0.0,0.0,0.0,237,2019-03-25 16:54:47:263
0.83,0.65,9.9,0.0,-0.06,0.0,0.0,0.0,0.0,242,2019-03-25 16:54:47:268
0.83,0.65,9.9,0.0,-0.06,0.0,0.0,0.0,0.0,247,2019-03-25 16:54:47:273
0.49,0.39,9.98,-0.3,-0.28,0.06,0.0,0.0,0.0,252,2019-03-25 16:54:47:278
0.49,0.39,9.98,-0.3,-0.28,0.06,0.0,0.0,0.0,257,2019-03-25 16:54:47:283
0.49,0.39,9.98,-0.3,-0.28,0.06,0.0,0.0,0.0,262,2019-03-25 16:54:47:288
0.49,0.39,9.98,-0.3,-0.28,0.06,0.0,0.0,0.0,267,2019-03-25 16:54:47:293
0.49,0.39,9.98,-0.3,-0.28,0.06,0.0,0.0,0.0,272,2019-03-25 16:54:47:298
0.49,0.39,9.98,-0.3,-0.28,0.06,0.0,0.0,0.0,278,2019-03-25 16:54:47:304
0.49,0.39,9.98,-0.3,-0.28,0.06,0.0,0.0,0.0,282,2019-03-25 16:54:47:308
0.45,0.19,9.92,-0.29,-0.41,0.01,0.0,0.0,0.0,287,2019-03-25 16:54:47:313
0.45,0.19,9.92,-0.29,-0.41,0.01,0.0,0.0,0.0,292,2019-03-25 16:54:47:318
0.45,0.19,9.92,-0.29,-0.41,0.01,0.0,0.0,0.0,297,2019-03-25 16:54:47:323
0.45,0.19,9.92,-0.29,-0.41,0.01,0.0,0.0,0.0,302,2019-03-25 16:54:47:328
0.45,0.19,9.92,-0.29,-0.41,0.01,0.0,0.0,0.0,307,2019-03-25 16:54:47:333
0.45,0.19,9.92,-0.29,-0.41,0.01,0.0,0.0,0.0,312,2019-03-25 16:54:47:338
0.45,0.19,9.92,-0.29,-0.41,0.01,0.0,0.0,0.0,317,2019-03-25 16:54:47:343
0.71,0.16,10.08,0.0,-0.34,0.15,0.0,0.0,0.02,322,2019-03-25 16:54:47:348
0.71,0.16,10.08,0.0,-0.34,0.15,0.0,0.0,0.02,327,2019-03-25 16:54:47:353
0.71,0.16,10.08,0.0,-0.34,0.15,0.0,0.0,0.02,332,2019-03-25 16:54:47:358
0.71,0.16,10.08,0.0,-0.34,0.15,0.0,0.0,0.02,337,2019-03-25 16:54:47:363
0.71,0.16,10.08,0.0,-0.34,0.15,0.0,0.0,0.02,342,2019-03-25 16:54:47:368
0.78,0.25,10.03,0.07,-0.19,0.1,0.0,0.0,0.02,347,2019-03-25 16:54:47:373
0.78,0.25,10.03,0.07,-0.19,0.1,0.0,0.0,0.02,352,2019-03-25 16:54:47:378
0.78,0.25,10.03,0.07,-0.19,0.1,0.0,0.0,0.02,357,2019-03-25 16:54:47:383
0.78,0.25,10.03,0.07,-0.19,0.1,0.0,0.0,0.02,362,2019-03-25 16:54:47:388
0.72,0.32,9.88,0.02,-0.07,-0.05,0.0,0.0,0.03,367,2019-03-25 16:54:47:393
0.72,0.32,9.88,0.02,-0.07,-0.05,0.0,0.0,0.03,372,2019-03-25 16:54:47:398
0.72,0.32,9.88,0.02,-0.07,-0.05,0.0,0.0,0.03,378,2019-03-25 16:54:47:404
0.72,0.32,9.88,0.02,-0.07,-0.05,0.0,0.0,0.03,382,2019-03-25 16:54:47:408
0.72,0.32,9.88,0.02,-0.07,-0.05,0.0,0.0,0.03,387,2019-03-25 16:54:47:413
0.72,0.32,9.88,0.02,-0.07,-0.05,0.0,0.0,0.03,393,2019-03-25 16:54:47:419
0.72,0.32,9.88,0.02,-0.07,-0.05,0.0,0.0,0.03,397,2019-03-25 16:54:47:423
0.72,0.32,9.88,0.02,-0.07,-0.05,0.0,0.0,0.03,402,2019-03-25 16:54:47:428
0.86,0.74,9.9,0.15,0.36,-0.03,0.0,0.0,0.04,407,2019-03-25 16:54:47:433
0.86,0.74,9.9,0.15,0.36,-0.03,0.0,0.0,0.04,412,2019-03-25 16:54:47:438
0.86,0.74,9.9,0.15,0.36,-0.03,0.0,0.0,0.04,417,2019-03-25 16:54:47:443
0.91,0.91,9.86,0.15,0.36,-0.03,0.0,0.0,0.04,422,2019-03-25 16:54:47:448
0.91,0.91,9.86,0.19,0.51,-0.06,0.0,0.0,0.04,427,2019-03-25 16:54:47:453
0.91,0.91,9.86,0.19,0.51,-0.06,0.0,0.0,0.04,432,2019-03-25 16:54:47:458
0.91,0.91,9.86,0.19,0.51,-0.06,0.0,0.0,0.04,437,2019-03-25 16:54:47:463
0.91,0.91,9.86,0.19,0.51,-0.06,0.0,0.0,0.04,442,2019-03-25 16:54:47:468
0.91,0.91,9.86,0.19,0.51,-0.06,0.0,0.0,0.04,447,2019-03-25 16:54:47:473
0.91,0.91,9.86,0.19,0.51,-0.06,0.0,0.0,0.04,452,2019-03-25 16:54:47:478
0.91,0.91,9.86,0.19,0.51,-0.06,0.0,0.0,0.04,457,2019-03-25 16:54:47:483
0.86,1.01,9.74,0.1,0.51,-0.17,0.0,0.0,0.04,462,2019-03-25 16:54:47:488
0.86,1.01,9.74,0.1,0.51,-0.17,0.0,0.0,0.04,467,2019-03-25 16:54:47:493
0.8,0.92,9.93,0.0,0.3,0.03,0.0,0.0,0.02,472,2019-03-25 16:54:47:498
0.8,0.92,9.93,0.0,0.3,0.03,0.0,0.0,0.02,477,2019-03-25 16:54:47:503
0.8,0.92,9.93,0.0,0.3,0.03,0.0,0.0,0.02,482,2019-03-25 16:54:47:508
0.8,0.92,9.93,0.0,0.3,0.03,0.0,0.0,0.02,487,2019-03-25 16:54:47:513
0.78,0.77,9.9,-0.03,0.11,0.0,0.0,0.0,0.0,492,2019-03-25 16:54:47:518
0.78,0.77,9.9,-0.03,0.11,0.0,0.0,0.0,0.0,497,2019-03-25 16:54:47:523
0.78,0.77,9.9,-0.03,0.11,0.0,0.0,0.0,0.0,502,2019-03-25 16:54:47:528
0.78,0.77,9.9,-0.03,0.11,0.0,0.0,0.0,0.0,509,2019-03-25 16:54:47:535
0.78,0.77,9.9,-0.03,0.11,0.0,0.0,0.0,0.0,512,2019-03-25 16:54:47:538
0.78,0.77,9.9,-0.03,0.11,0.0,0.0,0.0,0.0,517,2019-03-25 16:54:47:543
0.82,0.6,9.95,0.0,-0.09,0.05,0.0,0.0,0.0,522,2019-03-25 16:54:47:548
0.82,0.6,9.95,0.0,-0.09,0.05,0.0,0.0,0.0,529,2019-03-25 16:54:47:555
0.82,0.6,9.95,0.0,-0.09,0.05,0.0,0.0,0.0,532,2019-03-25 16:54:47:558
0.82,0.6,9.95,0.0,-0.09,0.05,0.0,0.0,0.0,537,2019-03-25 16:54:47:563
0.87,0.41,9.9,0.03,-0.31,0.01,0.0,0.0,0.0,543,2019-03-25 16:54:47:569
0.87,0.41,9.9,0.03,-0.31,0.01,0.0,0.0,0.0,547,2019-03-25 16:54:47:573
0.87,0.41,9.9,0.03,-0.31,0.01,0.0,0.0,0.0,552,2019-03-25 16:54:47:578
0.87,0.41,9.9,0.03,-0.31,0.01,0.0,0.0,0.0,557,2019-03-25 16:54:47:583
0.78,0.32,9.74,-0.05,-0.4,-0.14,0.0,0.0,0.0,562,2019-03-25 16:54:47:588
0.78,0.32,9.74,-0.05,-0.4,-0.14,0.0,0.0,0.0,567,2019-03-25 16:54:47:593
0.78,0.32,9.74,-0.16,-0.23,0.04,0.0,0.0,0.0,572,2019-03-25 16:54:47:598
0.78,0.32,9.74,-0.16,-0.23,0.04,0.0,0.0,0.0,577,2019-03-25 16:54:47:603
0.78,0.32,9.74,-0.16,-0.23,0.04,0.0,0.0,0.0,583,2019-03-25 16:54:47:609
0.78,0.32,9.74,-0.16,-0.23,0.04,0.0,0.0,0.0,587,2019-03-25 16:54:47:613
0.58,0.42,10.32,-0.21,-0.27,0.4,0.0,0.0,0.01,592,2019-03-25 16:54:47:618
0.58,0.42,10.32,-0.21,-0.27,0.4,0.0,0.0,0.01,597,2019-03-25 16:54:47:623
0.58,0.42,10.32,-0.21,-0.27,0.4,0.0,0.0,0.01,602,2019-03-25 16:54:47:628
0.58,0.42,10.32,-0.21,-0.27,0.4,0.0,0.0,0.01,607,2019-03-25 16:54:47:633
0.67,0.52,9.81,-0.09,-0.13,-0.11,0.0,0.0,0.01,611,2019-03-25 16:54:47:637
0.67,0.52,9.81,-0.09,-0.13,-0.11,0.0,0.0,0.01,617,2019-03-25 16:54:47:643
0.67,0.52,9.81,-0.09,-0.13,-0.11,0.0,0.0,0.01,622,2019-03-25 16:54:47:648
0.67,0.52,9.81,-0.09,-0.13,-0.11,0.0,0.0,0.01,628,2019-03-25 16:54:47:654
0.69,0.61,10.11,-0.06,0.0,0.18,0.0,0.0,0.0,632,2019-03-25 16:54:47:658
0.69,0.61,10.11,-0.06,0.0,0.18,0.0,0.0,0.0,637,2019-03-25 16:54:47:663
0.69,0.61,10.11,-0.06,0.0,0.18,0.0,0.0,0.0,642,2019-03-25 16:54:47:668
0.69,0.61,10.11,-0.06,0.0,0.18,0.0,0.0,0.0,647,2019-03-25 16:54:47:673
1.23,0.51,10.15,0.45,-0.05,0.2,0.0,0.0,0.0,652,2019-03-25 16:54:47:678
1.23,0.51,10.15,0.45,-0.05,0.2,0.0,0.0,0.0,657,2019-03-25 16:54:47:683
1.23,0.51,10.15,0.45,-0.05,0.2,0.0,0.0,0.0,662,2019-03-25 16:54:47:688
1.23,0.51,10.15,0.45,-0.05,0.2,0.0,0.0,0.0,667,2019-03-25 16:54:47:693
0.84,0.65,9.99,0.06,0.1,0.05,0.0,0.0,0.0,672,2019-03-25 16:54:47:698
0.84,0.65,9.99,0.06,0.1,0.05,0.0,0.0,0.0,676,2019-03-25 16:54:47:702
0.84,0.65,9.99,0.06,0.1,0.05,0.0,0.0,0.0,682,2019-03-25 16:54:47:708
0.84,0.65,9.99,0.06,0.1,0.05,0.0,0.0,0.0,687,2019-03-25 16:54:47:713
0.59,0.74,10.08,-0.17,0.22,0.13,0.0,0.0,0.0,691,2019-03-25 16:54:47:717
0.59,0.74,10.08,-0.17,0.22,0.13,0.0,0.0,0.0,696,2019-03-25 16:54:47:722
0.59,0.74,10.08,-0.17,0.22,0.13,0.0,0.0,0.0,703,2019-03-25 16:54:47:729
0.59,0.74,10.08,-0.17,0.22,0.13,0.0,0.0,0.0,708,2019-03-25 16:54:47:734
0.77,0.71,9.86,0.0,0.18,-0.07,0.0,0.0,0.0,712,2019-03-25 16:54:47:738
0.77,0.71,9.86,0.0,0.18,-0.07,0.0,0.0,0.0,717,2019-03-25 16:54:47:743
0.77,0.71,9.86,0.0,0.18,-0.07,0.0,0.0,0.0,722,2019-03-25 16:54:47:748
0.77,0.71,9.86,0.0,0.18,-0.07,0.0,0.0,0.0,727,2019-03-25 16:54:47:753
0.85,0.68,9.76,0.08,0.13,-0.18,0.0,0.0,0.0,732,2019-03-25 16:54:47:758
0.85,0.68,9.76,0.08,0.13,-0.18,0.0,0.0,0.0,737,2019-03-25 16:54:47:763
0.85,0.68,9.76,0.08,0.13,-0.18,0.0,0.0,0.0,742,2019-03-25 16:54:47:768
0.85,0.68,9.76,0.08,0.13,-0.18,0.0,0.0,0.0,748,2019-03-25 16:54:47:774
0.85,0.68,9.76,0.08,0.13,-0.18,0.0,0.0,0.0,752,2019-03-25 16:54:47:778
0.96,0.74,9.83,0.17,0.14,-0.1,0.0,-0.01,0.0,757,2019-03-25 16:54:47:783
0.96,0.74,9.83,0.17,0.14,-0.1,0.0,-0.01,0.0,763,2019-03-25 16:54:47:789
0.96,0.74,9.83,0.17,0.14,-0.1,0.0,-0.01,0.0,767,2019-03-25 16:54:47:793
0.96,0.74,9.83,0.17,0.14,-0.1,0.0,-0.01,0.0,773,2019-03-25 16:54:47:799
0.73,0.89,9.85,-0.07,0.24,-0.07,0.0,0.0,0.0,777,2019-03-25 16:54:47:803
0.73,0.89,9.85,-0.07,0.24,-0.07,0.0,0.0,0.0,782,2019-03-25 16:54:47:808
0.73,0.89,9.85,-0.07,0.24,-0.07,0.0,0.0,0.0,787,2019-03-25 16:54:47:813
0.97,0.84,9.85,0.14,0.15,-0.04,0.0,0.0,-0.02,792,2019-03-25 16:54:47:818
0.97,0.84,9.85,0.14,0.15,-0.04,0.0,0.0,-0.02,797,2019-03-25 16:54:47:823
0.97,0.84,9.85,0.14,0.15,-0.04,0.0,0.0,-0.02,802,2019-03-25 16:54:47:828
0.97,0.84,9.85,0.14,0.15,-0.04,0.0,0.0,-0.02,807,2019-03-25 16:54:47:833
0.97,0.84,9.85,0.14,0.15,-0.04,0.0,0.0,-0.02,812,2019-03-25 16:54:47:838
0.97,0.84,9.85,0.14,0.15,-0.04,0.0,0.0,-0.02,817,2019-03-25 16:54:47:843
0.96,0.71,9.91,0.1,0.0,0.01,0.0,0.0,-0.03,822,2019-03-25 16:54:47:848
0.96,0.71,9.91,0.1,0.0,0.01,0.0,0.0,-0.03,828,2019-03-25 16:54:47:854
0.85,0.64,9.97,-0.09,-0.19,0.02,0.0,0.0,-0.03,832,2019-03-25 16:54:47:858
0.85,0.64,9.97,-0.09,-0.19,0.02,0.0,0.0,-0.03,837,2019-03-25 16:54:47:863
0.85,0.64,9.97,-0.09,-0.19,0.02,0.0,0.0,-0.03,845,2019-03-25 16:54:47:871
0.85,0.64,9.97,-0.09,-0.19,0.02,0.0,0.0,-0.03,848,2019-03-25 16:54:47:874
0.85,0.64,9.97,-0.09,-0.19,0.02,0.0,0.0,-0.03,852,2019-03-25 16:54:47:878
0.7,0.62,9.91,-0.14,-0.1,0.03,0.0,0.0,-0.01,857,2019-03-25 16:54:47:883
0.7,0.62,9.91,-0.14,-0.1,0.03,0.0,0.0,-0.01,862,2019-03-25 16:54:47:888
0.7,0.62,9.91,-0.14,-0.1,0.03,0.0,0.0,-0.01,872,2019-03-25 16:54:47:898
0.7,0.62,9.94,-0.15,-0.2,0.05,0.0,0.0,0.0,873,2019-03-25 16:54:47:899
0.66,0.5,9.94,-0.15,-0.2,0.05,0.0,0.0,0.0,877,2019-03-25 16:54:47:903
0.66,0.5,9.94,-0.15,-0.2,0.05,0.0,0.0,0.0,883,2019-03-25 16:54:47:909
0.66,0.5,9.94,-0.15,-0.2,0.05,0.0,0.0,0.0,887,2019-03-25 16:54:47:913
0.66,0.5,9.94,-0.15,-0.2,0.05,0.0,0.0,0.0,892,2019-03-25 16:54:47:918
0.82,0.6,9.93,0.0,-0.1,0.03,0.0,0.0,0.01,897,2019-03-25 16:54:47:923
0.82,0.6,9.93,0.0,-0.1,0.03,0.0,0.0,0.01,902,2019-03-25 16:54:47:928
0.82,0.6,9.93,0.0,-0.1,0.03,0.0,0.0,0.01,910,2019-03-25 16:54:47:936
0.82,0.6,9.93,0.0,-0.1,0.03,0.0,0.0,0.01,912,2019-03-25 16:54:47:938
0.92,0.46,9.89,0.1,-0.23,0.0,0.0,0.0,0.0,917,2019-03-25 16:54:47:943
0.92,0.46,9.89,0.1,-0.23,0.0,0.0,0.0,0.0,922,2019-03-25 16:54:47:948
0.92,0.46,9.89,0.1,-0.23,0.0,0.0,0.0,0.0,927,2019-03-25 16:54:47:953
0.92,0.46,9.89,0.1,-0.23,0.0,0.0,0.0,0.0,933,2019-03-25 16:54:47:959
0.79,0.44,9.98,-0.04,-0.21,0.07,0.0,0.0,0.0,937,2019-03-25 16:54:47:963
0.79,0.44,9.98,-0.04,-0.21,0.07,0.0,0.0,0.0,942,2019-03-25 16:54:47:968
0.79,0.44,9.98,-0.04,-0.21,0.07,0.0,0.0,0.0,947,2019-03-25 16:54:47:973
0.79,0.44,9.98,-0.04,-0.21,0.07,0.0,0.0,0.0,951,2019-03-25 16:54:47:977
0.85,0.37,9.89,0.02,-0.24,-0.01,0.0,0.0,0.0,957,2019-03-25 16:54:47:983
0.85,0.37,9.89,0.02,-0.24,-0.01,0.0,0.0,0.0,962,2019-03-25 16:54:47:988
0.85,0.37,9.89,0.02,-0.24,-0.01,0.0,0.0,0.0,967,2019-03-25 16:54:47:993
0.85,0.37,9.89,0.02,-0.24,-0.01,0.0,0.0,0.0,973,2019-03-25 16:54:47:999
0.88,0.57,9.94,0.04,0.0,0.03,0.0,0.0,0.0,977,2019-03-25 16:54:48:003
0.88,0.57,9.94,0.04,0.0,0.03,0.0,0.0,0.0,982,2019-03-25 16:54:48:008
0.88,0.57,9.94,0.04,0.0,0.03,0.0,0.0,0.0,987,2019-03-25 16:54:48:013
0.88,0.57,9.94,0.04,0.0,0.03,0.0,0.0,0.0,992,2019-03-25 16:54:48:018
0.86,0.73,9.93,0.02,0.16,0.0,0.0,0.0,0.0,997,2019-03-25 16:54:48:023
0.86,0.73,9.93,0.02,0.16,0.0,0.0,0.0,0.0,1002,2019-03-25 16:54:48:028
0.86,0.73,9.93,0.02,0.16,0.0,0.0,0.0,0.0,1007,2019-03-25 16:54:48:033
0.86,0.73,9.93,0.02,0.16,0.0,0.0,0.0,0.0,1012,2019-03-25 16:54:48:038
0.63,0.63,9.88,-0.17,0.07,-0.04,0.0,0.0,-0.01,1017,2019-03-25 16:54:48:043
0.63,0.63,9.88,-0.17,0.07,-0.04,0.0,0.0,-0.01,1022,2019-03-25 16:54:48:048
0.63,0.63,9.88,-0.17,0.07,-0.04,0.0,0.0,-0.01,1027,2019-03-25 16:54:48:053
0.63,0.63,9.88,-0.17,0.07,-0.04,0.0,0.0,-0.01,1031,2019-03-25 16:54:48:057
0.75,0.42,9.94,-0.03,-0.11,0.02,0.0,0.0,-0.01,1037,2019-03-25 16:54:48:063
0.75,0.42,9.94,-0.03,-0.11,0.02,0.0,0.0,-0.01,1042,2019-03-25 16:54:48:068
0.75,0.42,9.94,-0.03,-0.11,0.02,0.0,0.0,-0.01,1047,2019-03-25 16:54:48:073
0.75,0.42,9.94,-0.03,-0.11,0.02,0.0,0.0,-0.01,1052,2019-03-25 16:54:48:078
0.9,0.42,9.94,0.09,-0.09,0.02,0.0,0.0,-0.02,1057,2019-03-25 16:54:48:083
0.9,0.42,9.94,0.09,-0.09,0.02,0.0,0.0,-0.02,1062,2019-03-25 16:54:48:088
0.9,0.42,9.94,0.09,-0.09,0.02,0.0,0.0,-0.02,1067,2019-03-25 16:54:48:093
0.65,0.5,9.99,0.09,-0.09,0.02,0.0,0.0,-0.01,1072,2019-03-25 16:54:48:098
0.65,0.5,9.99,-0.16,0.0,0.07,0.0,0.0,-0.01,1077,2019-03-25 16:54:48:103
0.65,0.5,9.99,-0.16,0.0,0.07,0.0,0.0,-0.01,1082,2019-03-25 16:54:48:108
0.65,0.5,9.99,-0.16,0.0,0.07,0.0,0.0,-0.01,1087,2019-03-25 16:54:48:113
0.65,0.5,9.99,-0.16,0.0,0.07,0.0,0.0,-0.01,1092,2019-03-25 16:54:48:118
0.41,0.72,9.93,-0.36,0.2,0.0,0.0,0.0,0.0,1097,2019-03-25 16:54:48:123
0.41,0.72,9.93,-0.36,0.2,0.0,0.0,0.0,0.0,1102,2019-03-25 16:54:48:128
0.41,0.72,9.93,-0.36,0.2,0.0,0.0,0.0,0.0,1107,2019-03-25 16:54:48:133
0.55,0.81,9.9,-0.36,0.2,0.0,0.0,0.0,0.0,1112,2019-03-25 16:54:48:138
0.55,0.81,9.9,-0.19,0.26,-0.03,0.0,0.0,0.05,1117,2019-03-25 16:54:48:143
0.55,0.81,9.9,-0.19,0.26,-0.03,0.0,0.0,0.05,1122,2019-03-25 16:54:48:148
0.55,0.81,9.9,-0.19,0.26,-0.03,0.0,0.0,0.05,1127,2019-03-25 16:54:48:153
0.55,0.81,9.9,-0.19,0.26,-0.03,0.0,0.0,0.05,1132,2019-03-25 16:54:48:158
0.55,0.81,9.9,-0.19,0.26,-0.03,0.0,0.0,0.05,1137,2019-03-25 16:54:48:163
0.63,1.39,9.76,-0.08,0.77,-0.16,0.01,0.0,0.09,1142,2019-03-25 16:54:48:168
0.63,1.39,9.76,-0.08,0.77,-0.16,0.01,0.0,0.09,1147,2019-03-25 16:54:48:173
0.63,1.39,9.76,-0.08,0.77,-0.16,0.01,0.0,0.09,1153,2019-03-25 16:54:48:179
0.63,1.39,9.76,-0.08,0.77,-0.16,0.01,0.0,0.09,1157,2019-03-25 16:54:48:183
0.75,2.08,9.8,0.04,1.29,-0.11,0.01,0.0,0.1,1162,2019-03-25 16:54:48:188
0.75,2.08,9.8,0.04,1.29,-0.11,0.01,0.0,0.1,1167,2019-03-25 16:54:48:193
0.75,2.08,9.8,0.04,1.29,-0.11,0.01,0.0,0.1,1172,2019-03-25 16:54:48:198
0.75,2.08,9.8,0.04,1.29,-0.11,0.01,0.0,0.1,1177,2019-03-25 16:54:48:203
1.34,2.52,9.74,0.6,1.53,-0.15,0.01,0.0,0.06,1182,2019-03-25 16:54:48:208
1.34,2.52,9.74,0.6,1.53,-0.15,0.01,0.0,0.06,1187,2019-03-25 16:54:48:213
1.34,2.52,9.74,0.6,1.53,-0.15,0.01,0.0,0.06,1193,2019-03-25 16:54:48:219
1.34,2.52,9.74,0.6,1.53,-0.15,0.01,0.0,0.06,1197,2019-03-25 16:54:48:223
1.2,1.99,9.88,0.43,0.85,0.0,0.0,0.0,0.0,1202,2019-03-25 16:54:48:228
1.2,1.99,9.88,0.43,0.85,0.0,0.0,0.0,-0.03,1206,2019-03-25 16:54:48:232
1.2,1.99,9.88,0.43,0.85,0.0,0.0,0.0,-0.03,1211,2019-03-25 16:54:48:237
1.2,1.99,9.88,0.43,0.85,0.0,0.0,0.0,-0.03,1216,2019-03-25 16:54:48:242
1.2,1.99,9.88,0.43,0.85,0.0,0.0,0.0,-0.03,1222,2019-03-25 16:54:48:248
1.2,1.99,9.88,0.43,0.85,0.0,0.0,0.0,-0.03,1227,2019-03-25 16:54:48:253
0.63,0.69,10.08,-0.2,-0.52,0.19,0.0,0.0,-0.02,1232,2019-03-25 16:54:48:258
0.63,0.69,10.08,-0.2,-0.52,0.19,0.0,0.0,-0.02,1237,2019-03-25 16:54:48:263
0.63,0.69,10.08,-0.2,-0.52,0.19,0.0,0.0,-0.02,1242,2019-03-25 16:54:48:268
0.63,0.69,10.08,-0.2,-0.52,0.19,0.0,0.0,-0.02,1247,2019-03-25 16:54:48:273
0.45,0.63,9.88,-0.35,-0.61,-0.01,0.0,0.0,-0.01,1252,2019-03-25 16:54:48:278
0.45,0.63,9.88,-0.35,-0.61,-0.01,0.0,0.0,-0.01,1257,2019-03-25 16:54:48:283
0.45,0.63,9.88,-0.35,-0.61,-0.01,0.0,0.0,-0.01,1262,2019-03-25 16:54:48:288
0.45,0.63,9.88,-0.35,-0.61,-0.01,0.0,0.0,-0.01,1267,2019-03-25 16:54:48:293
0.75,0.76,9.91,-0.05,-0.5,0.02,0.0,0.0,0.0,1273,2019-03-25 16:54:48:299
0.75,0.76,9.91,-0.05,-0.5,0.02,0.0,0.0,0.0,1277,2019-03-25 16:54:48:303
0.75,0.76,9.91,-0.05,-0.5,0.02,0.0,0.0,0.0,1282,2019-03-25 16:54:48:308
0.75,0.76,9.91,-0.05,-0.5,0.02,0.0,0.0,0.0,1287,2019-03-25 16:54:48:313
0.71,0.9,9.93,-0.11,-0.38,0.04,0.0,0.0,0.01,1293,2019-03-25 16:54:48:319
0.71,0.9,9.93,-0.11,-0.38,0.04,0.0,0.0,0.01,1297,2019-03-25 16:54:48:323
0.71,0.9,9.93,-0.11,-0.38,0.04,0.0,0.0,0.01,1302,2019-03-25 16:54:48:328
0.71,0.9,9.93,-0.11,-0.38,0.04,0.0,0.0,0.01,1307,2019-03-25 16:54:48:333
0.79,1.14,9.83,-0.06,-0.16,-0.04,0.0,0.0,0.02,1312,2019-03-25 16:54:48:338
0.79,1.14,9.83,-0.06,-0.16,-0.04,0.0,0.0,0.02,1317,2019-03-25 16:54:48:343
0.79,1.14,9.83,-0.06,-0.16,-0.04,0.0,0.0,0.02,1322,2019-03-25 16:54:48:348
0.79,1.14,9.83,-0.06,-0.16,-0.04,0.0,0.0,0.02,1328,2019-03-25 16:54:48:354
0.78,1.58,9.91,-0.08,0.24,0.04,0.0,0.0,0.01,1332,2019-03-25 16:54:48:358
0.78,1.58,9.91,-0.08,0.24,0.04,0.0,0.0,0.01,1337,2019-03-25 16:54:48:363
0.78,1.58,9.91,-0.08,0.24,0.04,0.0,0.0,0.01,1342,2019-03-25 16:54:48:368
0.78,1.58,9.91,-0.08,0.24,0.04,0.0,0.0,0.01,1347,2019-03-25 16:54:48:373
0.78,1.58,9.91,-0.08,0.24,0.04,0.0,0.0,0.01,1352,2019-03-25 16:54:48:378
0.78,1.58,9.91,-0.08,0.24,0.04,0.0,0.0,0.01,1357,2019-03-25 16:54:48:383
0.78,1.58,9.91,-0.08,0.24,0.04,0.0,0.0,0.01,1362,2019-03-25 16:54:48:388
0.84,1.71,9.73,-0.03,0.39,-0.13,0.0,0.0,0.0,1367,2019-03-25 16:54:48:393
0.84,1.71,9.73,-0.03,0.39,-0.13,0.0,0.0,0.0,1372,2019-03-25 16:54:48:398
0.84,1.71,9.73,-0.03,0.39,-0.13,0.0,0.0,0.0,1377,2019-03-25 16:54:48:403
0.84,1.71,9.73,-0.03,0.39,-0.13,0.0,0.0,0.0,1382,2019-03-25 16:54:48:408
0.49,1.48,9.87,-0.27,0.31,-0.04,0.0,0.0,0.0,1395,2019-03-25 16:54:48:421
0.49,1.48,9.87,-0.27,0.31,-0.04,0.0,0.0,0.0,1397,2019-03-25 16:54:48:423
0.49,1.48,9.87,-0.27,0.31,-0.04,0.0,0.0,0.0,1398,2019-03-25 16:54:48:424
0.49,1.48,9.87,-0.27,0.31,-0.04,0.0,0.0,0.0,1402,2019-03-25 16:54:48:428
0.49,1.48,9.87,-0.27,0.31,-0.04,0.0,0.0,0.0,1407,2019-03-25 16:54:48:433
0.63,1.55,10.0,-0.07,0.35,0.08,0.0,0.0,0.0,1412,2019-03-25 16:54:48:438
0.63,1.55,10.0,-0.07,0.35,0.08,0.0,0.0,0.0,1417,2019-03-25 16:54:48:443
0.63,1.55,10.0,-0.07,0.35,0.08,0.0,0.0,0.0,1422,2019-03-25 16:54:48:448
0.63,1.55,10.0,-0.07,0.35,0.08,0.0,0.0,0.0,1427,2019-03-25 16:54:48:453
0.49,1.55,9.75,-0.17,0.27,-0.15,0.0,0.0,0.0,1432,2019-03-25 16:54:48:458
0.49,1.55,9.75,-0.17,0.27,-0.15,0.0,0.0,0.0,1437,2019-03-25 16:54:48:463
0.49,1.55,9.75,-0.17,0.27,-0.15,0.0,0.0,0.0,1442,2019-03-25 16:54:48:468
0.49,1.55,9.75,-0.17,0.27,-0.15,0.0,0.0,0.0,1447,2019-03-25 16:54:48:473
0.68,1.7,9.82,0.0,0.31,-0.06,0.0,0.0,0.0,1452,2019-03-25 16:54:48:478
0.68,1.7,9.82,0.0,0.31,-0.06,0.0,0.0,0.0,1457,2019-03-25 16:54:48:483
0.68,1.7,9.82,0.0,0.31,-0.06,0.0,0.0,0.0,1462,2019-03-25 16:54:48:488
0.68,1.7,9.82,0.0,0.31,-0.06,0.0,0.0,0.0,1467,2019-03-25 16:54:48:493
0.74,1.92,9.7,0.06,0.42,-0.16,0.0,-0.01,0.01,1473,2019-03-25 16:54:48:499
0.74,1.92,9.7,0.06,0.42,-0.16,0.0,-0.01,0.01,1477,2019-03-25 16:54:48:503
0.74,1.92,9.7,0.06,0.42,-0.16,0.0,-0.01,0.01,1484,2019-03-25 16:54:48:510
0.74,1.92,9.7,0.06,0.42,-0.16,0.0,-0.01,0.01,1488,2019-03-25 16:54:48:514
0.74,1.92,9.7,0.06,0.42,-0.16,0.0,-0.01,0.01,1492,2019-03-25 16:54:48:518
0.74,1.92,9.7,0.06,0.42,-0.16,0.0,-0.01,0.01,1497,2019-03-25 16:54:48:523
0.7,2.02,9.64,0.01,0.39,-0.2,0.0,-0.02,0.01,1502,2019-03-25 16:54:48:528
1.12,2.46,10.75,0.01,0.39,-0.2,-0.02,-0.02,0.0,1508,2019-03-25 16:54:48:534
1.12,2.46,10.75,0.42,0.71,0.88,-0.02,-0.02,0.0,1524,2019-03-25 16:54:48:550
1.12,2.46,10.75,0.42,0.71,0.88,-0.02,-0.02,0.0,1527,2019-03-25 16:54:48:553
1.12,2.46,10.75,0.42,0.71,0.88,-0.02,-0.02,0.0,1528,2019-03-25 16:54:48:554
1.12,2.46,10.75,0.42,0.71,0.88,-0.02,-0.02,0.0,1528,2019-03-25 16:54:48:554
1.12,2.46,10.75,0.42,0.71,0.88,-0.02,-0.02,0.0,1533,2019-03-25 16:54:48:559
1.12,2.46,10.75,0.42,0.71,0.88,-0.02,-0.02,0.0,1537,2019-03-25 16:54:48:563
1.27,1.51,9.12,0.51,-0.24,-0.69,0.0,-0.01,-0.01,1543,2019-03-25 16:54:48:569
1.27,1.51,9.12,0.51,-0.24,-0.69,0.0,-0.01,-0.01,1547,2019-03-25 16:54:48:573
1.27,1.51,9.12,0.51,-0.24,-0.69,0.0,-0.01,-0.01,1552,2019-03-25 16:54:48:578
1.27,1.51,9.12,0.51,-0.24,-0.69,0.0,-0.01,-0.01,1558,2019-03-25 16:54:48:584
1.27,1.51,9.12,0.51,-0.24,-0.69,0.0,-0.01,-0.01,1564,2019-03-25 16:54:48:590
1.27,1.51,9.12,0.51,-0.24,-0.69,0.0,-0.01,-0.01,1567,2019-03-25 16:54:48:593
1.27,1.51,9.12,0.51,-0.24,-0.69,0.0,-0.01,-0.01,1572,2019-03-25 16:54:48:598
1.27,1.51,9.12,0.51,-0.24,-0.69,0.0,-0.01,-0.01,1577,2019-03-25 16:54:48:603
1.27,1.51,9.12,0.51,-0.24,-0.69,0.0,-0.01,-0.01,1582,2019-03-25 16:54:48:608
1.42,1.34,9.21,0.62,-0.4,-0.63,0.0,0.0,-0.02,1587,2019-03-25 16:54:48:613
1.42,1.34,9.21,0.62,-0.4,-0.63,0.0,0.0,-0.02,1592,2019-03-25 16:54:48:618
1.42,1.34,9.21,0.62,-0.4,-0.63,0.0,0.0,-0.02,1598,2019-03-25 16:54:48:624
1.42,1.34,9.21,0.62,-0.4,-0.63,0.0,0.0,-0.02,1602,2019-03-25 16:54:48:628
1.42,1.34,9.21,0.62,-0.4,-0.63,0.0,0.0,-0.02,1607,2019-03-25 16:54:48:633
1.42,1.34,9.21,0.62,-0.4,-0.63,0.0,0.0,-0.02,1612,2019-03-25 16:54:48:638
1.42,1.34,9.21,0.62,-0.4,-0.63,0.0,0.0,-0.02,1617,2019-03-25 16:54:48:643
1.42,1.34,9.21,0.62,-0.4,-0.63,0.0,0.0,-0.02,1621,2019-03-25 16:54:48:647
1.11,1.73,9.69,0.21,-0.07,-0.08,0.0,0.0,-0.04,1627,2019-03-25 16:54:48:653
1.11,1.73,9.69,0.21,-0.07,-0.08,0.0,0.0,-0.04,1632,2019-03-25 16:54:48:658
1.11,1.73,9.69,0.21,-0.07,-0.08,0.0,0.0,-0.04,1637,2019-03-25 16:54:48:663
1.11,1.73,9.69,0.21,-0.07,-0.08,0.0,0.0,-0.04,1642,2019-03-25 16:54:48:668
0.91,1.72,9.89,-0.02,-0.08,0.11,0.0,0.0,-0.05,1647,2019-03-25 16:54:48:673
0.91,1.72,9.89,-0.02,-0.08,0.11,0.0,0.0,-0.05,1652,2019-03-25 16:54:48:678
0.91,1.72,9.89,-0.02,-0.08,0.11,0.0,0.0,-0.05,1657,2019-03-25 16:54:48:683
0.91,1.72,9.89,-0.02,-0.08,0.11,0.0,0.0,-0.05,1662,2019-03-25 16:54:48:688
1.1,1.63,9.55,0.12,-0.17,-0.2,0.0,0.0,-0.05,1667,2019-03-25 16:54:48:693
1.1,1.63,9.55,0.12,-0.17,-0.2,0.0,0.0,-0.05,1672,2019-03-25 16:54:48:698
1.1,1.63,9.55,0.12,-0.17,-0.2,0.0,0.0,-0.05,1677,2019-03-25 16:54:48:703
1.1,1.63,9.55,0.12,-0.17,-0.2,0.0,0.0,-0.05,1682,2019-03-25 16:54:48:708
1.1,1.63,9.55,0.12,-0.17,-0.2,0.0,0.0,-0.05,1687,2019-03-25 16:54:48:713
1.1,1.63,9.55,0.12,-0.17,-0.2,0.0,0.0,-0.05,1692,2019-03-25 16:54:48:718
1.09,1.77,9.5,0.1,-0.03,-0.3,0.0,0.0,-0.06,1703,2019-03-25 16:54:48:729
1.09,1.77,9.5,0.1,-0.03,-0.3,0.0,0.0,-0.06,1708,2019-03-25 16:54:48:734
1.09,1.77,9.5,0.1,-0.03,-0.3,0.0,0.0,-0.06,1709,2019-03-25 16:54:48:735
1.09,1.77,9.5,0.1,-0.03,-0.3,0.0,0.0,-0.06,1711,2019-03-25 16:54:48:737
1.09,1.77,9.5,0.1,-0.03,-0.3,0.0,0.0,-0.06,1717,2019-03-25 16:54:48:743
1.09,1.77,9.5,0.1,-0.03,-0.3,0.0,0.0,-0.06,1721,2019-03-25 16:54:48:747
0.98,1.81,9.87,0.01,0.1,0.04,0.0,0.0,-0.1,1728,2019-03-25 16:54:48:754
0.98,1.81,9.87,0.01,0.1,0.04,0.0,0.0,-0.1,1734,2019-03-25 16:54:48:760
0.38,1.73,9.78,-0.52,0.0,-0.09,0.0,0.0,-0.08,1737,2019-03-25 16:54:48:763
0.38,1.73,9.78,-0.52,0.0,-0.09,0.0,0.0,-0.08,1742,2019-03-25 16:54:48:768
0.38,1.73,9.78,-0.52,0.0,-0.09,0.0,0.0,-0.08,1747,2019-03-25 16:54:48:773
0.38,1.73,9.78,-0.52,0.0,-0.09,0.0,0.0,-0.08,1752,2019-03-25 16:54:48:778
0.38,1.73,9.78,-0.52,0.0,-0.09,0.0,0.0,-0.08,1758,2019-03-25 16:54:48:784
0.54,1.23,10.66,-0.38,-0.45,0.83,0.0,0.0,-0.06,1762,2019-03-25 16:54:48:788
0.54,1.23,10.66,-0.38,-0.45,0.83,0.0,0.0,-0.06,1767,2019-03-25 16:54:48:793
0.54,1.23,10.66,-0.38,-0.45,0.83,0.0,0.0,-0.06,1772,2019-03-25 16:54:48:798
0.54,1.23,10.66,-0.38,-0.45,0.83,0.0,0.0,-0.06,1777,2019-03-25 16:54:48:803
-0.85,1.01,10.25,-1.62,-0.62,0.28,0.01,0.0,-0.03,1782,2019-03-25 16:54:48:808
-0.85,1.01,10.25,-1.62,-0.62,0.28,0.01,0.0,-0.03,1787,2019-03-25 16:54:48:813
-0.85,1.01,10.25,-1.62,-0.62,0.28,0.01,0.0,-0.03,1792,2019-03-25 16:54:48:818
-0.5,1.06,9.11,-1.1,-0.52,-0.82,0.04,0.01,0.01,1797,2019-03-25 16:54:48:823
-0.5,1.06,9.11,-1.1,-0.52,-0.82,0.04,0.01,0.01,1802,2019-03-25 16:54:48:828
-0.5,1.06,9.11,-1.1,-0.52,-0.82,0.04,0.01,0.01,1811,2019-03-25 16:54:48:837
-0.5,1.06,9.11,-1.1,-0.52,-0.82,0.04,0.01,0.01,1811,2019-03-25 16:54:48:837
-0.5,1.06,9.11,-1.1,-0.52,-0.82,0.04,0.01,0.01,1817,2019-03-25 16:54:48:843
0.07,0.61,9.73,-0.41,-0.89,-0.3,0.03,0.01,0.06,1823,2019-03-25 16:54:48:849
0.07,0.61,9.73,-0.41,-0.89,-0.3,0.03,0.01,0.06,1827,2019-03-25 16:54:48:853
0.13,0.05,9.74,-0.26,-1.29,-0.28,0.03,0.02,0.13,1833,2019-03-25 16:54:48:859
0.13,0.05,9.74,-0.26,-1.29,-0.28,0.03,0.02,0.13,1840,2019-03-25 16:54:48:866
0.13,0.05,9.74,-0.26,-1.29,-0.28,0.03,0.02,0.13,1844,2019-03-25 16:54:48:870
0.13,0.05,9.74,-0.26,-1.29,-0.28,0.03,0.02,0.13,1847,2019-03-25 16:54:48:873
0.13,0.05,9.74,-0.26,-1.29,-0.28,0.03,0.02,0.13,1852,2019-03-25 16:54:48:878
0.13,0.05,9.74,-0.26,-1.29,-0.28,0.03,0.02,0.13,1857,2019-03-25 16:54:48:883
0.1,-0.51,9.97,-0.2,-1.63,-0.02,0.03,0.03,0.18,1865,2019-03-25 16:54:48:891
0.1,-0.51,9.97,-0.2,-1.63,-0.02,0.03,0.03,0.18,1867,2019-03-25 16:54:48:893
0.1,-0.51,9.97,-0.2,-1.63,-0.02,0.03,0.03,0.18,1872,2019-03-25 16:54:48:898
0.1,-0.51,9.97,-0.2,-1.63,-0.02,0.03,0.03,0.18,1876,2019-03-25 16:54:48:902
0.06,-0.74,9.38,-0.19,-1.62,-0.59,0.03,0.03,0.22,1882,2019-03-25 16:54:48:908
0.06,-0.74,9.38,-0.19,-1.62,-0.59,0.03,0.03,0.22,1887,2019-03-25 16:54:48:913
0.35,-1.56,9.33,-0.19,-1.62,-0.59,0.01,0.03,0.26,1893,2019-03-25 16:54:48:919
0.35,-1.56,9.33,-0.19,-1.62,-0.59,0.01,0.03,0.26,1897,2019-03-25 16:54:48:923
0.35,-1.56,9.33,-0.19,-1.62,-0.59,0.01,0.03,0.26,1902,2019-03-25 16:54:48:928
0.35,-1.56,9.33,-0.19,-1.62,-0.59,0.01,0.03,0.26,1907,2019-03-25 16:54:48:933
0.05,-1.27,10.45,-0.04,-1.56,0.47,0.0,0.04,0.28,1912,2019-03-25 16:54:48:938
0.05,-1.27,10.45,-0.04,-1.56,0.47,0.0,0.04,0.28,1918,2019-03-25 16:54:48:944
0.05,-1.27,10.45,-0.04,-1.56,0.47,0.0,0.04,0.28,1922,2019-03-25 16:54:48:948
0.05,-1.27,10.45,-0.04,-1.56,0.47,0.0,0.04,0.28,1927,2019-03-25 16:54:48:953
0.05,-1.27,10.45,-0.04,-1.56,0.47,0.0,0.04,0.28,1932,2019-03-25 16:54:48:958
-0.15,-1.91,9.24,-0.16,-1.83,-0.72,0.02,0.03,0.29,1937,2019-03-25 16:54:48:963
-0.15,-1.91,9.24,-0.16,-1.83,-0.72,0.02,0.03,0.29,1941,2019-03-25 16:54:48:967
-0.15,-1.91,9.24,-0.16,-1.83,-0.72,0.02,0.03,0.29,1947,2019-03-25 16:54:48:973
-0.15,-1.91,9.24,-0.16,-1.83,-0.72,0.02,0.03,0.29,1952,2019-03-25 16:54:48:978
-0.15,-1.91,9.24,-0.16,-1.83,-0.72,0.02,0.03,0.29,1957,2019-03-25 16:54:48:983
0.61,-0.36,10.02,0.64,-0.07,0.14,0.0,0.04,0.32,1962,2019-03-25 16:54:48:988
0.61,-0.36,10.02,0.64,-0.07,0.14,0.0,0.04,0.32,1967,2019-03-25 16:54:48:993
0.61,-0.36,10.02,0.64,-0.07,0.14,0.01,0.03,0.35,1972,2019-03-25 16:54:48:998
0.61,-0.36,10.02,0.64,-0.07,0.14,0.01,0.03,0.35,1977,2019-03-25 16:54:49:003
0.61,-0.36,10.02,0.64,-0.07,0.14,0.01,0.03,0.35,1982,2019-03-25 16:54:49:008
0.61,-0.36,10.02,0.64,-0.07,0.14,0.01,0.03,0.35,1987,2019-03-25 16:54:49:013
0.61,-0.36,10.02,0.64,-0.07,0.14,0.01,0.03,0.35,1992,2019-03-25 16:54:49:018
1.54,2.13,9.83,1.19,2.4,0.0,0.01,0.01,0.33,1997,2019-03-25 16:54:49:023
1.54,2.13,9.83,1.19,2.4,0.0,0.01,0.01,0.33,2003,2019-03-25 16:54:49:029
1.54,2.13,9.83,1.19,2.4,0.0,0.01,0.01,0.33,2008,2019-03-25 16:54:49:034
1.54,2.13,9.83,1.19,2.4,0.0,0.01,0.01,0.33,2012,2019-03-25 16:54:49:038
0.74,2.83,9.61,0.25,2.91,-0.13,0.01,0.0,0.27,2017,2019-03-25 16:54:49:043
0.74,2.83,9.61,0.25,2.91,-0.13,0.01,0.0,0.27,2023,2019-03-25 16:54:49:049
0.74,2.83,9.61,0.25,2.91,-0.13,0.01,0.0,0.27,2027,2019-03-25 16:54:49:053
0.74,2.83,9.61,0.25,2.91,-0.13,0.01,0.0,0.27,2032,2019-03-25 16:54:49:058
0.74,2.83,9.61,0.25,2.91,-0.13,0.01,0.0,0.27,2037,2019-03-25 16:54:49:063
0.21,1.96,10.45,-0.32,1.81,0.56,0.01,-0.03,0.2,2042,2019-03-25 16:54:49:068
0.21,1.96,10.45,-0.32,1.81,0.56,0.01,-0.03,0.2,2047,2019-03-25 16:54:49:073
0.21,1.96,10.45,-0.32,1.81,0.56,0.01,-0.03,0.2,2052,2019-03-25 16:54:49:078
0.21,1.96,10.45,-0.32,1.81,0.56,0.01,-0.03,0.2,2057,2019-03-25 16:54:49:083
1.07,0.73,9.53,0.38,0.42,-0.26,0.04,-0.02,0.18,2061,2019-03-25 16:54:49:087
1.07,0.73,9.53,0.38,0.42,-0.26,0.04,-0.02,0.18,2068,2019-03-25 16:54:49:094
1.07,0.73,9.53,0.38,0.42,-0.26,0.05,-0.02,0.2,2072,2019-03-25 16:54:49:098
1.07,0.73,9.53,0.38,0.42,-0.26,0.05,-0.02,0.2,2077,2019-03-25 16:54:49:103
1.07,0.73,9.53,0.38,0.42,-0.26,0.05,-0.02,0.2,2081,2019-03-25 16:54:49:107
1.07,0.73,9.53,0.38,0.42,-0.26,0.05,-0.02,0.2,2087,2019-03-25 16:54:49:113
0.63,0.49,11.84,-0.14,-0.01,1.9,0.02,-0.03,0.23,2097,2019-03-25 16:54:49:123
0.63,0.49,11.84,-0.14,-0.01,1.9,0.02,-0.03,0.23,2098,2019-03-25 16:54:49:124
0.63,0.49,11.84,-0.14,-0.01,1.9,0.02,-0.03,0.23,2104,2019-03-25 16:54:49:130
0.63,0.49,11.84,-0.14,-0.01,1.9,0.02,-0.03,0.23,2107,2019-03-25 16:54:49:133
0.63,0.49,11.84,-0.14,-0.01,1.9,0.02,-0.03,0.23,2112,2019-03-25 16:54:49:138
0.98,-0.02,8.61,0.16,-0.69,-1.33,0.11,0.03,0.26,2117,2019-03-25 16:54:49:143
0.98,-0.02,8.61,0.16,-0.69,-1.33,0.11,0.03,0.26,2122,2019-03-25 16:54:49:148
0.98,-0.02,8.61,0.16,-0.69,-1.33,0.11,0.03,0.26,2127,2019-03-25 16:54:49:153
0.98,-0.02,8.61,0.16,-0.69,-1.33,0.11,0.03,0.26,2133,2019-03-25 16:54:49:159
0.7,0.47,10.05,-0.18,-0.4,0.08,0.05,0.0,0.28,2139,2019-03-25 16:54:49:165
0.7,0.47,10.05,-0.18,-0.4,0.08,0.05,0.0,0.28,2142,2019-03-25 16:54:49:168
0.7,0.47,10.05,-0.18,-0.4,0.08,0.05,0.0,0.28,2148,2019-03-25 16:54:49:174
0.7,0.47,10.05,-0.18,-0.4,0.08,0.05,0.0,0.28,2152,2019-03-25 16:54:49:178
0.77,0.58,8.8,-0.15,-0.42,-1.15,0.04,0.01,0.26,2158,2019-03-25 16:54:49:184
0.77,0.58,8.8,-0.15,-0.42,-1.15,0.04,0.01,0.26,2162,2019-03-25 16:54:49:188
0.77,0.58,8.8,-0.15,-0.42,-1.15,0.04,0.01,0.26,2167,2019-03-25 16:54:49:193
0.77,0.58,8.8,-0.15,-0.42,-1.15,0.04,0.01,0.26,2172,2019-03-25 16:54:49:198
0.77,0.58,8.8,-0.15,-0.42,-1.15,0.04,0.01,0.26,2177,2019-03-25 16:54:49:203
1.22,0.81,9.98,0.31,-0.2,0.01,0.03,-0.01,0.23,2182,2019-03-25 16:54:49:208
1.22,0.81,9.98,0.31,-0.2,0.01,0.03,-0.01,0.23,2186,2019-03-25 16:54:49:212
1.22,0.81,9.98,0.31,-0.2,0.01,0.03,-0.01,0.23,2192,2019-03-25 16:54:49:218
0.82,0.51,8.77,0.02,-0.35,-1.13,0.01,0.0,0.22,2199,2019-03-25 16:54:49:225
0.82,0.51,8.77,0.02,-0.35,-1.13,0.01,0.0,0.22,2201,2019-03-25 16:54:49:227
0.82,0.51,8.77,0.02,-0.35,-1.13,0.01,0.0,0.22,2207,2019-03-25 16:54:49:233
0.67,-0.26,9.79,-0.09,-0.85,-0.18,0.03,0.02,0.22,2212,2019-03-25 16:54:49:238
0.67,-0.26,9.79,-0.09,-0.85,-0.18,0.03,0.02,0.22,2218,2019-03-25 16:54:49:244
0.67,-0.26,9.79,-0.09,-0.85,-0.18,0.03,0.02,0.22,2222,2019-03-25 16:54:49:248
0.67,-0.26,9.79,-0.09,-0.85,-0.18,0.03,0.02,0.22,2227,2019-03-25 16:54:49:253
0.67,-0.26,9.79,-0.09,-0.85,-0.18,0.03,0.02,0.22,2232,2019-03-25 16:54:49:258
0.44,-1.64,9.82,-0.34,-1.85,-0.03,0.04,0.03,0.23,2237,2019-03-25 16:54:49:263
0.44,-1.64,9.82,-0.34,-1.85,-0.03,0.04,0.03,0.23,2242,2019-03-25 16:54:49:268
0.44,-1.64,9.82,-0.34,-1.85,-0.03,0.04,0.03,0.23,2247,2019-03-25 16:54:49:273
-0.25,-2.24,9.65,-0.89,-2.15,-0.3,0.07,0.03,0.3,2252,2019-03-25 16:54:49:278
-0.25,-2.24,9.65,-0.89,-2.15,-0.3,0.07,0.03,0.3,2257,2019-03-25 16:54:49:283
-0.25,-2.24,9.65,-0.89,-2.15,-0.3,0.07,0.03,0.3,2262,2019-03-25 16:54:49:288
-0.25,-2.24,9.65,-0.89,-2.15,-0.3,0.07,0.03,0.3,2267,2019-03-25 16:54:49:293
1.03,1.45,10.79,0.4,1.57,0.71,0.06,0.04,0.41,2273,2019-03-25 16:54:49:299
1.03,1.45,10.79,0.4,1.57,0.71,0.06,0.04,0.41,2282,2019-03-25 16:54:49:308
1.03,1.45,10.79,0.4,1.57,0.71,0.06,0.04,0.41,2283,2019-03-25 16:54:49:309
1.03,1.45,10.79,0.4,1.57,0.71,0.06,0.04,0.41,2287,2019-03-25 16:54:49:313
2.62,4.25,8.15,1.78,4.02,-1.7,0.13,0.04,0.28,2302,2019-03-25 16:54:49:328
2.62,4.25,8.15,1.78,4.02,-1.7,0.13,0.04,0.28,2302,2019-03-25 16:54:49:328
2.62,4.25,8.15,1.78,4.02,-1.7,0.13,0.04,0.28,2303,2019-03-25 16:54:49:329
1.1,2.25,9.48,0.18,1.72,-0.31,0.03,0.01,0.07,2307,2019-03-25 16:54:49:333
1.1,2.25,9.48,0.18,1.72,-0.31,0.03,0.01,0.07,2319,2019-03-25 16:54:49:345
1.1,2.25,9.48,0.18,1.72,-0.31,0.03,0.01,0.07,2320,2019-03-25 16:54:49:346
1.1,2.25,9.48,0.18,1.72,-0.31,0.03,0.01,0.07,2325,2019-03-25 16:54:49:351
1.1,2.25,9.48,0.18,1.72,-0.31,0.03,0.01,0.07,2328,2019-03-25 16:54:49:354
1.1,2.25,9.48,0.18,1.72,-0.31,0.03,0.01,0.07,2333,2019-03-25 16:54:49:359
1.0,1.18,9.64,0.06,0.53,-0.15,0.01,0.02,0.02,2356,2019-03-25 16:54:49:382
1.0,1.18,9.64,0.06,0.53,-0.15,0.01,0.02,0.02,2365,2019-03-25 16:54:49:391
1.0,1.18,9.64,0.06,0.53,-0.15,0.01,0.02,0.02,2365,2019-03-25 16:54:49:391
1.0,1.18,9.64,0.06,0.53,-0.15,0.01,0.02,0.02,2366,2019-03-25 16:54:49:392
1.0,1.18,9.64,0.06,0.53,-0.15,0.01,0.02,0.02,2371,2019-03-25 16:54:49:397
1.0,1.18,9.64,0.06,0.53,-0.15,0.01,0.02,0.02,2371,2019-03-25 16:54:49:397
0.44,0.29,9.22,-0.45,-0.33,-0.57,0.01,0.01,0.02,2372,2019-03-25 16:54:49:398
0.44,0.29,9.22,-0.45,-0.33,-0.57,0.01,0.01,0.02,2373,2019-03-25 16:54:49:399
0.44,0.29,9.22,-0.45,-0.33,-0.57,0.01,0.01,0.02,2378,2019-03-25 16:54:49:404
0.44,0.29,9.22,-0.45,-0.33,-0.57,0.01,0.01,0.02,2382,2019-03-25 16:54:49:408
0.44,0.29,9.22,-0.45,-0.33,-0.57,0.01,0.01,0.02,2388,2019-03-25 16:54:49:414
0.44,0.29,9.22,-0.45,-0.33,-0.57,0.01,0.01,0.02,2393,2019-03-25 16:54:49:419
0.44,0.29,9.22,-0.45,-0.33,-0.57,0.01,0.01,0.02,2397,2019-03-25 16:54:49:423
1.02,-0.21,10.29,0.05,-0.65,0.38,0.0,0.02,0.14,2402,2019-03-25 16:54:49:428
1.02,-0.21,10.29,0.05,-0.65,0.38,0.0,0.02,0.14,2407,2019-03-25 16:54:49:433
1.02,-0.21,10.29,-0.17,-0.6,-0.1,0.01,0.03,0.12,2414,2019-03-25 16:54:49:440
1.02,-0.21,10.29,-0.17,-0.6,-0.1,0.01,0.03,0.12,2417,2019-03-25 16:54:49:443
1.02,-0.21,10.29,-0.17,-0.6,-0.1,0.01,0.03,0.12,2422,2019-03-25 16:54:49:448
1.02,-0.21,10.29,-0.17,-0.6,-0.1,0.01,0.03,0.12,2427,2019-03-25 16:54:49:453
0.96,0.62,10.36,-0.06,0.04,0.48,0.0,0.01,0.1,2434,2019-03-25 16:54:49:460
0.96,0.62,10.36,-0.06,0.04,0.48,0.0,0.01,0.1,2437,2019-03-25 16:54:49:463
0.96,0.62,10.36,-0.06,0.04,0.48,0.0,0.01,0.1,2443,2019-03-25 16:54:49:469
0.96,0.62,10.36,-0.06,0.04,0.48,0.0,0.01,0.1,2447,2019-03-25 16:54:49:473
0.96,0.62,10.36,-0.06,0.04,0.48,0.0,0.01,0.1,2452,2019-03-25 16:54:49:478
0.96,0.62,10.36,-0.06,0.04,0.48,0.0,0.01,0.1,2458,2019-03-25 16:54:49:484
0.67,0.73,8.79,-0.38,-0.11,-1.03,0.03,0.0,0.06,2462,2019-03-25 16:54:49:488
0.67,0.73,8.79,-0.38,-0.11,-1.03,-0.02,-0.01,0.07,2467,2019-03-25 16:54:49:493
0.67,0.73,8.79,-0.38,-0.11,-1.03,-0.02,-0.01,0.07,2479,2019-03-25 16:54:49:505
0.67,0.73,8.79,-0.38,-0.11,-1.03,-0.02,-0.01,0.07,2480,2019-03-25 16:54:49:506
0.67,0.73,8.79,-0.38,-0.11,-1.03,-0.02,-0.01,0.07,2482,2019-03-25 16:54:49:508
0.67,0.73,8.79,-0.38,-0.11,-1.03,-0.02,-0.01,0.07,2487,2019-03-25 16:54:49:513
0.67,0.73,8.79,-0.38,-0.11,-1.03,-0.02,-0.01,0.07,2492,2019-03-25 16:54:49:518
0.67,0.73,8.79,-0.38,-0.11,-1.03,-0.02,-0.01,0.07,2497,2019-03-25 16:54:49:523
0.51,0.63,9.89,-0.32,-0.14,-0.04,0.0,0.0,0.07,2502,2019-03-25 16:54:49:528
0.51,0.63,9.89,-0.32,-0.14,-0.04,0.0,0.0,0.07,2507,2019-03-25 16:54:49:533
0.51,0.63,9.89,-0.32,-0.14,-0.04,0.0,0.0,0.07,2513,2019-03-25 16:54:49:539
0.51,0.63,9.89,-0.32,-0.14,-0.04,0.0,0.0,0.07,2517,2019-03-25 16:54:49:543
0.44,0.85,10.79,-0.35,0.3,0.83,0.02,0.0,0.09,2527,2019-03-25 16:54:49:553
0.44,0.85,10.79,-0.35,0.3,0.83,0.06,0.01,0.12,2530,2019-03-25 16:54:49:556
0.44,0.85,10.79,-0.35,0.3,0.83,0.06,0.01,0.12,2532,2019-03-25 16:54:49:558
0.44,0.85,10.79,-0.35,0.3,0.83,0.06,0.01,0.12,2537,2019-03-25 16:54:49:563
0.44,0.85,10.79,-0.35,0.3,0.83,0.06,0.01,0.12,2542,2019-03-25 16:54:49:568
0.44,0.85,10.79,-0.35,0.3,0.83,0.06,0.01,0.12,2547,2019-03-25 16:54:49:573
0.4,0.98,9.72,-0.37,0.42,-0.37,0.08,0.01,0.13,2552,2019-03-25 16:54:49:578
0.4,0.98,9.72,-0.37,0.42,-0.37,0.08,0.01,0.13,2557,2019-03-25 16:54:49:583
0.4,0.98,9.72,-0.37,0.42,-0.37,0.08,0.01,0.13,2563,2019-03-25 16:54:49:589
0.4,0.98,9.72,-0.37,0.42,-0.37,0.08,0.01,0.13,2567,2019-03-25 16:54:49:593
0.4,0.98,9.72,-0.37,0.42,-0.37,0.08,0.01,0.13,2572,2019-03-25 16:54:49:598
0.4,0.98,9.72,-0.37,0.42,-0.37,0.08,0.01,0.13,2579,2019-03-25 16:54:49:605
1.03,1.41,9.48,0.21,0.68,-0.51,0.08,0.01,0.12,2587,2019-03-25 16:54:49:613
1.03,1.41,9.48,0.21,0.68,-0.51,0.08,0.01,0.12,2587,2019-03-25 16:54:49:613
1.03,1.41,9.48,0.21,0.68,-0.51,0.08,0.01,0.12,2592,2019-03-25 16:54:49:618
1.03,1.41,9.48,0.21,0.68,-0.51,0.08,0.01,0.12,2597,2019-03-25 16:54:49:623
1.03,1.41,9.48,0.21,0.68,-0.51,0.08,0.01,0.12,2603,2019-03-25 16:54:49:629
1.1,1.81,8.87,0.31,0.87,-1.08,0.05,0.02,0.09,2607,2019-03-25 16:54:49:633
1.1,1.81,8.87,0.31,0.87,-1.08,0.05,0.02,0.09,2613,2019-03-25 16:54:49:639
1.1,1.81,8.87,0.31,0.87,-1.08,0.05,0.02,0.09,2617,2019-03-25 16:54:49:643
1.1,1.81,8.87,0.31,0.87,-1.08,0.05,0.02,0.09,2623,2019-03-25 16:54:49:649
1.1,1.81,8.87,0.31,0.87,-1.08,0.05,0.02,0.09,2627,2019-03-25 16:54:49:653
1.1,1.81,8.87,0.31,0.87,-1.08,0.05,0.02,0.09,2632,2019-03-25 16:54:49:658
1.1,1.81,8.87,0.31,0.87,-1.08,0.05,0.02,0.09,2637,2019-03-25 16:54:49:663
1.48,0.92,9.73,0.61,-0.23,-0.15,0.0,0.04,0.02,2643,2019-03-25 16:54:49:669
1.48,0.92,9.73,0.61,-0.23,-0.15,0.0,0.04,0.02,2651,2019-03-25 16:54:49:677
1.48,0.92,9.73,0.61,-0.23,-0.15,0.0,0.04,0.02,2652,2019-03-25 16:54:49:678
1.48,0.92,9.73,0.61,-0.23,-0.15,0.0,0.04,0.02,2657,2019-03-25 16:54:49:683
1.48,0.92,9.73,0.61,-0.23,-0.15,0.0,0.04,0.02,2662,2019-03-25 16:54:49:688
1.23,1.26,10.72,0.31,0.05,0.75,0.01,0.04,0.0,2668,2019-03-25 16:54:49:694
1.23,1.26,10.72,0.31,0.05,0.75,0.01,0.04,0.0,2673,2019-03-25 16:54:49:699
1.23,1.26,10.72,0.31,0.05,0.75,0.01,0.04,0.0,2677,2019-03-25 16:54:49:703
1.23,1.26,10.72,0.31,0.05,0.75,0.01,0.04,0.0,2683,2019-03-25 16:54:49:709
1.23,1.26,10.72,0.31,0.05,0.75,0.01,0.04,0.0,2687,2019-03-25 16:54:49:713
1.23,1.26,10.72,0.31,0.05,0.75,0.01,0.04,0.0,2692,2019-03-25 16:54:49:718
1.23,1.26,10.72,0.31,0.05,0.75,0.01,0.04,0.0,2697,2019-03-25 16:54:49:723
1.44,0.97,9.87,0.43,-0.21,0.11,0.0,0.0,-0.07,2702,2019-03-25 16:54:49:728
1.44,0.97,9.87,0.43,-0.21,0.11,0.0,0.0,-0.07,2707,2019-03-25 16:54:49:733
1.44,0.97,9.87,0.43,-0.21,0.11,-0.01,-0.01,-0.12,2712,2019-03-25 16:54:49:738
1.44,0.97,9.87,0.43,-0.21,0.11,-0.01,-0.01,-0.12,2717,2019-03-25 16:54:49:743
1.44,0.97,9.87,0.43,-0.21,0.11,-0.01,-0.01,-0.12,2723,2019-03-25 16:54:49:749
1.44,0.97,9.87,0.43,-0.21,0.11,-0.01,-0.01,-0.12,2727,2019-03-25 16:54:49:753
1.44,1.34,9.28,0.26,0.02,-0.4,-0.02,-0.03,-0.14,2732,2019-03-25 16:54:49:758
1.44,1.34,9.28,0.26,0.02,-0.4,-0.02,-0.03,-0.14,2737,2019-03-25 16:54:49:763
1.44,1.34,9.28,0.26,0.02,-0.4,-0.02,-0.03,-0.14,2742,2019-03-25 16:54:49:768
1.44,1.34,9.28,0.26,0.02,-0.4,-0.02,-0.03,-0.14,2747,2019-03-25 16:54:49:773
1.44,1.34,9.28,0.26,0.02,-0.4,-0.02,-0.03,-0.14,2752,2019-03-25 16:54:49:778
1.44,1.34,9.28,0.26,0.02,-0.4,-0.02,-0.03,-0.14,2758,2019-03-25 16:54:49:784
1.44,1.34,9.28,0.26,0.02,-0.4,-0.02,-0.03,-0.14,2761,2019-03-25 16:54:49:787
1.11,0.75,8.48,-0.1,-0.54,-1.15,-0.03,-0.03,-0.18,2767,2019-03-25 16:54:49:793
1.11,0.75,8.48,-0.1,-0.54,-1.15,-0.03,-0.03,-0.18,2772,2019-03-25 16:54:49:798
1.11,0.75,8.48,-0.1,-0.54,-1.15,-0.03,-0.03,-0.18,2777,2019-03-25 16:54:49:803
1.11,0.75,8.48,-0.1,-0.54,-1.15,-0.03,-0.03,-0.18,2783,2019-03-25 16:54:49:809
1.11,0.75,8.48,-0.1,-0.54,-1.15,-0.03,-0.03,-0.18,2787,2019-03-25 16:54:49:813
1.11,0.75,8.48,-0.1,-0.54,-1.15,-0.03,-0.03,-0.18,2791,2019-03-25 16:54:49:817
1.11,0.75,8.48,-0.1,-0.54,-1.15,-0.03,-0.03,-0.18,2797,2019-03-25 16:54:49:823
0.68,0.29,9.66,-0.48,-0.82,-0.1,-0.03,-0.03,-0.22,2802,2019-03-25 16:54:49:828
0.68,0.29,9.66,-0.48,-0.82,-0.1,-0.03,-0.03,-0.22,2807,2019-03-25 16:54:49:833
0.68,0.29,9.66,-0.48,-0.82,-0.1,-0.06,-0.04,-0.2,2812,2019-03-25 16:54:49:838
0.68,0.29,9.66,-0.48,-0.82,-0.1,-0.06,-0.04,-0.2,2817,2019-03-25 16:54:49:843
0.68,0.29,9.66,-0.48,-0.82,-0.1,-0.06,-0.04,-0.2,2822,2019-03-25 16:54:49:848
0.68,0.29,9.66,-0.48,-0.82,-0.1,-0.06,-0.04,-0.2,2827,2019-03-25 16:54:49:853
0.3,-0.31,9.87,-0.69,-1.24,-0.03,-0.05,-0.06,-0.19,2832,2019-03-25 16:54:49:858
0.3,-0.31,9.87,-0.69,-1.24,-0.03,-0.05,-0.06,-0.19,2838,2019-03-25 16:54:49:864
0.3,-0.31,9.87,-0.69,-1.24,-0.03,-0.05,-0.06,-0.19,2842,2019-03-25 16:54:49:868
0.3,-0.31,9.87,-0.69,-1.24,-0.03,-0.05,-0.06,-0.19,2847,2019-03-25 16:54:49:873
0.3,-0.31,9.87,-0.69,-1.24,-0.03,-0.05,-0.06,-0.19,2852,2019-03-25 16:54:49:878
0.3,-0.31,9.87,-0.69,-1.24,-0.03,-0.05,-0.06,-0.19,2857,2019-03-25 16:54:49:883
0.3,-0.31,9.87,-0.69,-1.24,-0.03,-0.05,-0.06,-0.19,2862,2019-03-25 16:54:49:888
-0.51,-0.22,10.13,-1.37,-0.96,0.23,-0.04,-0.02,-0.09,2867,2019-03-25 16:54:49:893
-0.51,-0.22,10.13,-1.37,-0.96,0.23,-0.04,-0.02,-0.09,2872,2019-03-25 16:54:49:898
-0.51,-0.22,10.13,-1.37,-0.96,0.23,-0.04,-0.02,-0.09,2877,2019-03-25 16:54:49:903
-0.51,-0.22,10.13,-1.37,-0.96,0.23,-0.04,-0.02,-0.09,2882,2019-03-25 16:54:49:908
-0.29,-0.44,9.68,-1.04,-0.98,-0.29,-0.02,0.0,0.01,2887,2019-03-25 16:54:49:913
-0.29,-0.44,9.68,-1.04,-0.98,-0.29,-0.02,0.0,0.01,2892,2019-03-25 16:54:49:918
-0.29,-0.44,9.68,-1.04,-0.98,-0.29,-0.02,0.0,0.01,2897,2019-03-25 16:54:49:923
0.35,-0.29,10.74,-0.25,-0.69,0.6,0.0,0.0,0.1,2902,2019-03-25 16:54:49:928
0.35,-0.29,10.74,-0.25,-0.69,0.6,0.0,0.0,0.1,2907,2019-03-25 16:54:49:933
0.35,-0.29,10.74,-0.25,-0.69,0.6,0.0,0.01,0.18,2912,2019-03-25 16:54:49:938
0.35,-0.29,10.74,-0.25,-0.69,0.6,0.0,0.01,0.18,2916,2019-03-25 16:54:49:942
0.35,-0.29,10.74,-0.25,-0.69,0.6,0.0,0.01,0.18,2923,2019-03-25 16:54:49:949
0.35,-0.29,10.74,-0.25,-0.69,0.6,0.0,0.01,0.18,2927,2019-03-25 16:54:49:953
0.98,0.75,9.2,0.55,0.56,-0.88,0.0,0.0,0.18,2932,2019-03-25 16:54:49:958
0.98,0.75,9.2,0.55,0.56,-0.88,0.0,0.0,0.18,2937,2019-03-25 16:54:49:963
0.98,0.75,9.2,0.55,0.56,-0.88,0.0,0.0,0.18,2942,2019-03-25 16:54:49:968
0.98,0.75,9.2,0.55,0.56,-0.88,0.0,0.0,0.18,2947,2019-03-25 16:54:49:973
1.37,1.9,10.06,0.91,1.63,-0.07,-0.03,-0.01,0.16,2952,2019-03-25 16:54:49:978
1.37,1.9,10.06,0.91,1.63,-0.07,-0.03,-0.01,0.16,2957,2019-03-25 16:54:49:983
1.37,1.9,10.06,0.91,1.63,-0.07,-0.03,-0.01,0.16,2962,2019-03-25 16:54:49:988
1.37,1.9,10.06,0.91,1.63,-0.07,-0.03,-0.01,0.16,2966,2019-03-25 16:54:49:992
1.88,1.79,9.66,1.36,1.38,-0.36,-0.02,0.0,0.08,2973,2019-03-25 16:54:49:999
1.88,1.79,9.66,1.36,1.38,-0.36,-0.02,0.0,0.08,2977,2019-03-25 16:54:50:003
1.88,1.79,9.66,1.36,1.38,-0.36,-0.02,0.0,0.08,2982,2019-03-25 16:54:50:008
1.88,1.79,9.66,1.36,1.38,-0.36,-0.02,0.0,0.08,2987,2019-03-25 16:54:50:013
1.99,1.8,10.58,1.36,1.25,0.48,-0.01,0.0,0.02,2992,2019-03-25 16:54:50:018
1.99,1.8,10.58,1.36,1.25,0.48,-0.01,0.0,0.02,2997,2019-03-25 16:54:50:023
1.99,1.8,10.58,1.36,1.25,0.48,-0.01,0.0,0.02,3003,2019-03-25 16:54:50:029
1.99,1.8,10.58,1.36,1.25,0.48,-0.01,0.0,0.02,3008,2019-03-25 16:54:50:034
1.24,1.11,10.16,0.54,0.5,0.14,0.01,0.01,-0.03,3012,2019-03-25 16:54:50:038
1.24,1.11,10.16,0.54,0.5,0.14,0.01,0.01,-0.03,3017,2019-03-25 16:54:50:043
1.24,1.11,10.16,0.54,0.5,0.14,0.01,0.01,-0.03,3022,2019-03-25 16:54:50:048
1.24,1.11,10.16,0.54,0.5,0.14,0.01,0.01,-0.03,3027,2019-03-25 16:54:50:053
1.8,1.95,9.86,0.97,1.13,-0.19,0.01,0.01,-0.06,3032,2019-03-25 16:54:50:058
1.8,1.95,9.86,0.97,1.13,-0.19,0.01,0.01,-0.06,3037,2019-03-25 16:54:50:063
1.8,1.95,9.86,0.97,1.13,-0.19,0.01,0.01,-0.06,3042,2019-03-25 16:54:50:068
1.8,1.95,9.86,0.97,1.13,-0.19,0.01,0.01,-0.06,3047,2019-03-25 16:54:50:073
1.8,1.95,9.86,0.97,1.13,-0.19,0.01,0.01,-0.06,3053,2019-03-25 16:54:50:079
1.8,1.95,9.86,0.97,1.13,-0.19,0.01,0.01,-0.06,3057,2019-03-25 16:54:50:083
1.2,1.59,10.35,0.21,0.52,0.32,0.05,-0.01,-0.13,3063,2019-03-25 16:54:50:089
1.2,1.59,10.35,0.21,0.52,0.32,0.05,-0.01,-0.13,3069,2019-03-25 16:54:50:095
1.2,1.59,10.35,0.21,0.52,0.32,0.05,-0.01,-0.13,3072,2019-03-25 16:54:50:098
1.24,1.11,8.96,0.12,-0.13,-0.93,-0.01,0.0,-0.18,3077,2019-03-25 16:54:50:103
1.24,1.11,8.96,0.12,-0.13,-0.93,-0.01,0.0,-0.18,3083,2019-03-25 16:54:50:109
1.24,1.11,8.96,0.12,-0.13,-0.93,-0.01,0.0,-0.18,3087,2019-03-25 16:54:50:113
1.24,1.11,8.96,0.12,-0.13,-0.93,-0.01,0.0,-0.18,3097,2019-03-25 16:54:50:123
1.24,1.11,8.96,0.12,-0.13,-0.93,-0.01,0.0,-0.18,3097,2019-03-25 16:54:50:123
1.24,1.11,8.96,0.12,-0.13,-0.93,-0.01,0.0,-0.18,3104,2019-03-25 16:54:50:130
1.46,0.06,10.09,0.18,-1.23,0.35,0.0,0.0,-0.21,3107,2019-03-25 16:54:50:133
1.46,0.06,10.09,0.18,-1.23,0.35,0.0,0.0,-0.21,3112,2019-03-25 16:54:50:138
1.46,0.06,10.09,0.18,-1.23,0.35,0.0,0.0,-0.21,3117,2019-03-25 16:54:50:143
1.12,-0.08,10.18,-0.23,-1.38,0.45,-0.03,0.0,-0.2,3123,2019-03-25 16:54:50:149
1.12,-0.08,10.18,-0.23,-1.38,0.45,-0.03,0.0,-0.2,3127,2019-03-25 16:54:50:153
1.12,-0.08,10.18,-0.23,-1.38,0.45,-0.04,-0.01,-0.19,3132,2019-03-25 16:54:50:158
1.12,-0.08,10.18,-0.23,-1.38,0.45,-0.04,-0.01,-0.19,3138,2019-03-25 16:54:50:164
1.12,-0.08,10.18,-0.23,-1.38,0.45,-0.04,-0.01,-0.19,3147,2019-03-25 16:54:50:173
1.12,-0.08,10.18,-0.23,-1.38,0.45,-0.04,-0.01,-0.19,3152,2019-03-25 16:54:50:178
1.12,-0.08,10.18,-0.23,-1.38,0.45,-0.04,-0.01,-0.19,3152,2019-03-25 16:54:50:178
1.12,-0.08,10.18,-0.23,-1.38,0.45,-0.04,-0.01,-0.19,3157,2019-03-25 16:54:50:183
0.54,0.44,12.0,-0.85,-0.58,2.15,-0.03,-0.02,-0.19,3165,2019-03-25 16:54:50:191
0.54,0.44,12.0,-0.85,-0.58,2.15,-0.03,-0.02,-0.19,3167,2019-03-25 16:54:50:193
0.54,0.44,12.0,-0.85,-0.58,2.15,-0.03,-0.02,-0.19,3172,2019-03-25 16:54:50:198
0.54,0.44,12.0,-0.85,-0.58,2.15,-0.03,-0.02,-0.19,3177,2019-03-25 16:54:50:203
0.54,0.44,12.0,-0.85,-0.58,2.15,-0.03,-0.02,-0.19,3182,2019-03-25 16:54:50:208
0.54,0.44,12.0,-0.85,-0.58,2.15,-0.03,-0.02,-0.19,3187,2019-03-25 16:54:50:213
0.54,0.44,12.0,-0.85,-0.58,2.15,-0.03,-0.02,-0.19,3192,2019-03-25 16:54:50:218
0.54,0.44,12.0,-0.85,-0.58,2.15,-0.03,-0.02,-0.19,3196,2019-03-25 16:54:50:222
0.42,-1.01,10.56,-0.67,-1.49,0.7,-0.02,0.0,-0.12,3203,2019-03-25 16:54:50:229
0.42,-1.01,10.56,-0.67,-1.49,0.7,-0.02,0.0,-0.12,3208,2019-03-25 16:54:50:234
0.42,-1.01,10.56,-0.45,-0.39,0.71,-0.01,0.0,-0.1,3212,2019-03-25 16:54:50:238
0.42,-1.01,10.56,-0.45,-0.39,0.71,-0.01,0.0,-0.1,3217,2019-03-25 16:54:50:243
0.42,-1.01,10.56,-0.45,-0.39,0.71,-0.01,0.0,-0.1,3222,2019-03-25 16:54:50:248
0.42,-1.01,10.56,-0.45,-0.39,0.71,-0.01,0.0,-0.1,3229,2019-03-25 16:54:50:255
0.32,-0.02,10.13,-0.57,-0.09,0.24,0.02,0.0,-0.06,3248,2019-03-25 16:54:50:274
0.32,-0.02,10.13,-0.57,-0.09,0.24,0.02,0.0,-0.06,3254,2019-03-25 16:54:50:280
0.32,-0.02,10.13,-0.57,-0.09,0.24,0.02,0.0,-0.06,3254,2019-03-25 16:54:50:280
0.32,-0.02,10.13,-0.57,-0.09,0.24,0.02,0.0,-0.06,3255,2019-03-25 16:54:50:281
0.32,-0.02,10.13,-0.57,-0.09,0.24,0.02,0.0,-0.06,3255,2019-03-25 16:54:50:281
0.62,-0.39,9.18,-0.19,-0.22,-0.63,0.04,0.01,-0.03,3258,2019-03-25 16:54:50:284
0.62,-0.39,9.18,-0.19,-0.22,-0.63,0.04,0.01,-0.03,3268,2019-03-25 16:54:50:294
0.62,-0.39,9.18,-0.19,-0.22,-0.63,0.04,0.01,-0.03,3270,2019-03-25 16:54:50:296
0.62,-0.39,9.18,-0.19,-0.22,-0.63,0.04,0.01,-0.03,3271,2019-03-25 16:54:50:297
0.5,0.19,10.1,-0.24,0.48,0.17,-0.02,0.0,-0.01,3277,2019-03-25 16:54:50:303
0.5,0.19,10.1,-0.24,0.48,0.17,-0.02,0.0,-0.01,3282,2019-03-25 16:54:50:308
0.5,0.19,10.1,-0.24,0.48,0.17,-0.02,0.0,-0.01,3287,2019-03-25 16:54:50:313
1.73,2.55,9.4,0.99,2.68,-0.54,0.0,0.0,-0.02,3292,2019-03-25 16:54:50:318
1.73,2.55,9.4,0.99,2.68,-0.54,0.0,0.0,-0.02,3297,2019-03-25 16:54:50:323
1.73,2.55,9.4,0.99,2.68,-0.54,0.0,0.0,-0.02,3302,2019-03-25 16:54:50:328
1.73,2.55,9.4,0.99,2.68,-0.54,0.0,0.0,-0.02,3307,2019-03-25 16:54:50:333
1.73,2.55,9.4,0.99,2.68,-0.54,0.0,0.0,-0.02,3312,2019-03-25 16:54:50:338
1.73,2.55,9.4,0.99,2.68,-0.54,0.0,0.0,-0.02,3316,2019-03-25 16:54:50:342
1.0,1.28,9.38,0.22,1.22,-0.52,0.0,0.0,-0.09,3323,2019-03-25 16:54:50:349
1.0,1.28,9.38,0.22,1.22,-0.52,0.0,0.0,-0.09,3335,2019-03-25 16:54:50:361
1.0,1.28,9.38,0.22,1.22,-0.52,0.0,0.0,-0.09,3336,2019-03-25 16:54:50:362
1.0,1.28,9.38,0.22,1.22,-0.52,0.0,0.0,-0.09,3336,2019-03-25 16:54:50:362
0.81,0.62,10.16,0.07,0.45,0.21,-0.03,0.0,-0.15,3348,2019-03-25 16:54:50:374
0.81,0.62,10.16,0.07,0.45,0.21,-0.03,0.0,-0.15,3349,2019-03-25 16:54:50:375
-0.03,0.54,9.93,-0.69,0.33,0.07,-0.03,0.0,-0.18,3361,2019-03-25 16:54:50:387
-0.03,0.54,9.93,-0.69,0.33,0.07,-0.03,0.0,-0.18,3362,2019-03-25 16:54:50:388
-0.03,0.54,9.93,-0.69,0.33,0.07,-0.03,0.0,-0.18,3362,2019-03-25 16:54:50:388
-0.03,0.54,9.93,-0.69,0.33,0.07,-0.03,0.0,-0.18,3367,2019-03-25 16:54:50:393
-0.03,0.54,9.93,-0.69,0.33,0.07,-0.03,0.0,-0.18,3374,2019-03-25 16:54:50:400
-0.03,0.54,9.93,-0.69,0.33,0.07,-0.03,0.0,-0.18,3377,2019-03-25 16:54:50:403
0.92,0.83,10.38,0.24,0.51,0.53,-0.03,0.0,-0.14,3391,2019-03-25 16:54:50:417
0.92,0.83,10.38,0.24,0.51,0.53,-0.03,0.0,-0.14,3394,2019-03-25 16:54:50:420
0.92,0.83,10.38,0.24,0.51,0.53,-0.03,0.0,-0.14,3394,2019-03-25 16:54:50:420
0.92,0.83,10.38,0.24,0.51,0.53,-0.03,0.0,-0.14,3397,2019-03-25 16:54:50:423
0.73,0.62,9.9,0.03,0.12,0.06,0.0,-0.01,-0.07,3406,2019-03-25 16:54:50:432
0.73,0.62,9.9,0.03,0.12,0.06,0.0,-0.01,-0.07,3410,2019-03-25 16:54:50:436
0.73,0.62,9.9,0.03,0.12,0.06,0.0,-0.01,-0.07,3412,2019-03-25 16:54:50:438
-0.03,1.41,9.98,-0.72,0.72,0.12,0.0,-0.01,-0.02,3417,2019-03-25 16:54:50:443
-0.03,1.41,9.98,-0.72,0.72,0.12,0.0,-0.01,-0.02,3422,2019-03-25 16:54:50:448
-0.03,1.41,9.98,-0.72,0.72,0.12,0.0,-0.01,-0.02,3427,2019-03-25 16:54:50:453
-0.03,1.41,9.98,-0.72,0.72,0.12,0.0,-0.01,-0.02,3432,2019-03-25 16:54:50:458
2.48,1.33,15.5,1.75,0.42,5.41,0.02,0.01,0.0,3438,2019-03-25 16:54:50:464
2.48,1.33,15.5,1.75,0.42,5.41,0.02,0.01,0.0,3442,2019-03-25 16:54:50:468
2.48,1.33,15.5,1.75,0.42,5.41,0.02,0.01,0.0,3448,2019-03-25 16:54:50:474
2.48,1.33,15.5,1.75,0.42,5.41,0.02,0.01,0.0,3452,2019-03-25 16:54:50:478
-0.27,1.57,10.15,-0.95,0.5,0.07,0.03,0.01,0.01,3457,2019-03-25 16:54:50:483
-0.27,1.57,10.15,-0.95,0.5,0.07,0.03,0.01,0.01,3462,2019-03-25 16:54:50:488
-0.27,1.57,10.15,-0.95,0.5,0.07,0.03,0.01,0.01,3467,2019-03-25 16:54:50:493
-0.27,1.57,10.15,-0.95,0.5,0.07,0.03,0.01,0.01,3473,2019-03-25 16:54:50:499
1.93,0.46,11.43,1.13,-0.7,1.31,0.0,-0.01,0.0,3477,2019-03-25 16:54:50:503
1.93,0.46,11.43,1.13,-0.7,1.31,0.0,-0.01,0.0,3482,2019-03-25 16:54:50:508
1.93,0.46,11.43,1.13,-0.7,1.31,0.0,-0.01,0.0,3487,2019-03-25 16:54:50:513
1.93,0.46,11.43,1.13,-0.7,1.31,0.0,-0.01,0.0,3492,2019-03-25 16:54:50:518
0.8,-0.15,9.46,0.11,-1.14,-0.65,0.03,-0.02,-0.01,3497,2019-03-25 16:54:50:523
0.8,-0.15,9.46,0.11,-1.14,-0.65,0.03,-0.02,-0.01,3502,2019-03-25 16:54:50:528
0.8,-0.15,9.46,0.11,-1.14,-0.65,0.03,-0.02,-0.01,3507,2019-03-25 16:54:50:533
0.8,-0.15,9.46,0.11,-1.14,-0.65,0.03,-0.02,-0.01,3513,2019-03-25 16:54:50:539
1.51,0.51,8.44,0.66,-0.31,-1.89,0.0,-0.02,0.0,3517,2019-03-25 16:54:50:543
1.51,0.51,8.44,0.66,-0.31,-1.89,0.0,-0.02,0.0,3522,2019-03-25 16:54:50:548
1.51,0.51,8.44,0.66,-0.31,-1.89,0.0,-0.02,0.0,3527,2019-03-25 16:54:50:553
1.51,0.51,8.44,0.66,-0.31,-1.89,0.0,-0.02,0.0,3531,2019-03-25 16:54:50:557
3.07,1.55,9.04,2.32,0.64,-1.25,0.01,0.0,0.0,3537,2019-03-25 16:54:50:563
3.07,1.55,9.04,2.32,0.64,-1.25,0.01,0.0,0.0,3542,2019-03-25 16:54:50:568
3.07,1.55,9.04,2.32,0.64,-1.25,0.01,0.0,0.0,3547,2019-03-25 16:54:50:573
3.07,1.55,9.04,2.32,0.64,-1.25,0.01,0.0,0.0,3552,2019-03-25 16:54:50:578
-1.48,1.52,9.77,-2.28,0.56,-0.46,0.01,0.02,0.01,3557,2019-03-25 16:54:50:583
-1.48,1.52,9.77,-2.28,0.56,-0.46,0.01,0.02,0.01,3563,2019-03-25 16:54:50:589
-1.48,1.52,9.77,-2.28,0.56,-0.46,0.01,0.02,0.01,3567,2019-03-25 16:54:50:593
1.69,1.63,11.02,0.8,0.57,0.74,0.0,0.0,0.0,3571,2019-03-25 16:54:50:597
1.69,1.63,11.02,0.8,0.57,0.74,0.0,0.0,0.0,3577,2019-03-25 16:54:50:603
1.69,1.63,11.02,0.8,0.57,0.74,0.0,0.0,0.0,3582,2019-03-25 16:54:50:608
1.69,1.63,11.02,0.8,0.57,0.74,0.0,0.0,0.0,3587,2019-03-25 16:54:50:613
1.69,1.63,11.02,0.8,0.57,0.74,0.0,0.0,0.0,3592,2019-03-25 16:54:50:618
1.69,1.63,11.02,0.8,0.57,0.74,0.0,0.0,0.0,3597,2019-03-25 16:54:50:623
0.66,1.99,9.44,-0.2,0.79,-0.79,0.0,0.0,0.0,3602,2019-03-25 16:54:50:628
0.66,1.99,9.44,-0.2,0.79,-0.79,0.0,0.0,0.0,3607,2019-03-25 16:54:50:633
0.66,1.99,9.44,-0.2,0.79,-0.79,0.0,0.0,0.0,3612,2019-03-25 16:54:50:638
0.66,1.99,9.44,-0.2,0.79,-0.79,0.0,0.0,0.0,3617,2019-03-25 16:54:50:643
1.99,2.12,10.68,1.04,0.82,0.49,0.0,0.0,-0.03,3622,2019-03-25 16:54:50:648
1.99,2.12,10.68,1.04,0.82,0.49,0.0,0.0,-0.03,3627,2019-03-25 16:54:50:653
1.99,2.12,10.68,1.04,0.82,0.49,0.0,0.0,-0.03,3632,2019-03-25 16:54:50:658
1.18,2.04,9.32,0.22,0.71,-0.56,0.0,0.01,-0.03,3637,2019-03-25 16:54:50:663
1.18,2.04,9.32,0.22,0.71,-0.56,0.0,0.01,-0.03,3642,2019-03-25 16:54:50:668
1.18,2.04,9.32,0.22,0.71,-0.56,0.0,0.01,-0.03,3647,2019-03-25 16:54:50:673
0.8,1.81,9.0,0.22,0.71,-0.56,0.0,0.01,-0.03,3652,2019-03-25 16:54:50:678
0.8,1.81,9.0,-0.23,0.4,-0.84,0.0,0.0,-0.06,3657,2019-03-25 16:54:50:683
0.8,1.81,9.0,-0.23,0.4,-0.84,0.0,0.0,-0.06,3662,2019-03-25 16:54:50:688
0.8,1.81,9.0,-0.23,0.4,-0.84,0.0,0.0,-0.06,3666,2019-03-25 16:54:50:692
0.8,1.81,9.0,-0.23,0.4,-0.84,0.0,0.0,-0.06,3673,2019-03-25 16:54:50:699
0.61,2.29,13.45,-0.34,0.74,3.55,-0.03,-0.01,-0.05,3677,2019-03-25 16:54:50:703
0.61,2.29,13.45,-0.34,0.74,3.55,-0.03,-0.01,-0.05,3683,2019-03-25 16:54:50:709
0.61,2.29,13.45,-0.34,0.74,3.55,-0.03,-0.01,-0.05,3687,2019-03-25 16:54:50:713
0.61,2.29,13.45,-0.34,0.74,3.55,-0.03,-0.01,-0.05,3692,2019-03-25 16:54:50:718
1.1,0.89,10.41,0.08,-0.79,0.44,-0.06,0.0,-0.04,3697,2019-03-25 16:54:50:723
1.1,0.89,10.41,0.08,-0.79,0.44,-0.06,0.0,-0.04,3703,2019-03-25 16:54:50:729
1.1,0.89,10.41,0.08,-0.79,0.44,-0.06,0.0,-0.04,3707,2019-03-25 16:54:50:733
0.39,1.92,10.38,-0.37,0.08,0.64,-0.03,-0.01,-0.05,3713,2019-03-25 16:54:50:739
0.39,1.92,10.38,-0.37,0.08,0.64,-0.03,-0.01,-0.05,3717,2019-03-25 16:54:50:743
0.39,1.92,10.38,-0.37,0.08,0.64,-0.03,-0.01,-0.05,3722,2019-03-25 16:54:50:748
0.39,1.92,10.38,-0.37,0.08,0.64,-0.03,-0.01,-0.05,3727,2019-03-25 16:54:50:753
0.39,1.92,10.38,-0.37,0.08,0.64,-0.03,-0.01,-0.05,3733,2019-03-25 16:54:50:759
0.39,1.92,10.38,-0.37,0.08,0.64,-0.03,-0.01,-0.05,3737,2019-03-25 16:54:50:763
0.9,1.49,10.17,0.07,-0.33,0.36,0.01,0.01,-0.06,3742,2019-03-25 16:54:50:768
0.9,1.49,10.17,0.07,-0.33,0.36,0.01,0.01,-0.06,3747,2019-03-25 16:54:50:773
0.9,1.49,10.17,0.07,-0.33,0.36,0.01,0.01,-0.06,3752,2019-03-25 16:54:50:778
0.9,1.49,10.17,-0.83,-0.87,-0.06,-0.06,-0.02,-0.06,3757,2019-03-25 16:54:50:783
0.9,1.49,10.17,-0.83,-0.87,-0.06,-0.06,-0.02,-0.06,3762,2019-03-25 16:54:50:788
0.9,1.49,10.17,-0.83,-0.87,-0.06,-0.06,-0.02,-0.06,3767,2019-03-25 16:54:50:793
0.46,1.49,9.85,-0.25,-0.34,0.0,-0.04,-0.02,-0.08,3772,2019-03-25 16:54:50:798
0.46,1.49,9.85,-0.25,-0.34,0.0,-0.04,-0.02,-0.08,3777,2019-03-25 16:54:50:803
0.46,1.49,9.85,-0.25,-0.34,0.0,-0.04,-0.02,-0.08,3782,2019-03-25 16:54:50:808
0.46,1.49,9.85,-0.25,-0.34,0.0,-0.04,-0.02,-0.08,3787,2019-03-25 16:54:50:813
0.89,1.21,10.63,0.14,-0.53,0.6,-0.04,0.0,-0.02,3792,2019-03-25 16:54:50:818
0.89,1.21,10.63,0.14,-0.53,0.6,-0.04,0.0,-0.02,3797,2019-03-25 16:54:50:823
0.89,1.21,10.63,0.14,-0.53,0.6,-0.04,0.0,-0.02,3802,2019-03-25 16:54:50:828
0.89,1.21,10.63,0.14,-0.53,0.6,-0.04,0.0,-0.02,3807,2019-03-25 16:54:50:833
0.69,-0.53,8.89,0.02,-2.02,-0.98,-0.05,0.04,0.0,3812,2019-03-25 16:54:50:838
0.69,-0.53,8.89,0.02,-2.02,-0.98,-0.05,0.04,0.0,3817,2019-03-25 16:54:50:843
0.69,-0.53,8.89,0.02,-2.02,-0.98,-0.05,0.04,0.0,3822,2019-03-25 16:54:50:848
0.69,-0.53,8.89,0.02,-2.02,-0.98,-0.05,0.04,0.0,3827,2019-03-25 16:54:50:853
0.87,-0.7,10.22,0.2,-1.92,0.28,-0.05,-0.03,-0.01,3832,2019-03-25 16:54:50:858
0.87,-0.7,10.22,0.2,-1.92,0.28,-0.05,-0.03,-0.01,3837,2019-03-25 16:54:50:863
0.87,-0.7,10.22,0.2,-1.92,0.28,-0.05,-0.03,-0.01,3842,2019-03-25 16:54:50:868
0.87,-0.7,10.22,0.2,-1.92,0.28,-0.05,-0.03,-0.01,3847,2019-03-25 16:54:50:873
-0.16,-0.73,9.84,-0.74,-1.68,-0.16,-0.02,-0.02,-0.02,3851,2019-03-25 16:54:50:877
-0.16,-0.73,9.84,-0.74,-1.68,-0.16,-0.02,-0.02,-0.02,3857,2019-03-25 16:54:50:883
-0.16,-0.73,9.84,-0.74,-1.68,-0.16,-0.02,-0.02,-0.02,3862,2019-03-25 16:54:50:888
-0.16,-0.73,9.84,-0.74,-1.68,-0.16,-0.02,-0.02,-0.02,3867,2019-03-25 16:54:50:893
0.01,-0.68,8.78,-0.47,-1.33,-1.04,-0.01,-0.02,0.01,3872,2019-03-25 16:54:50:898
0.01,-0.68,8.78,-0.47,-1.33,-1.04,-0.01,-0.02,0.01,3877,2019-03-25 16:54:50:903
0.01,-0.68,8.78,-0.47,-1.33,-1.04,-0.01,-0.02,0.01,3882,2019-03-25 16:54:50:908
0.01,-0.68,8.78,-0.47,-1.33,-1.04,-0.01,-0.02,0.01,3887,2019-03-25 16:54:50:913
0.01,-0.68,8.78,-0.47,-1.33,-1.04,-0.01,-0.02,0.01,3892,2019-03-25 16:54:50:918
0.01,-0.68,8.78,-0.47,-1.33,-1.04,-0.01,-0.02,0.01,3897,2019-03-25 16:54:50:923
0.98,1.09,10.81,0.47,0.53,0.97,-0.01,-0.01,0.02,3902,2019-03-25 16:54:50:928
0.98,1.09,10.81,0.47,0.53,0.97,-0.01,-0.01,0.02,3908,2019-03-25 16:54:50:934
0.95,0.78,10.15,0.47,0.53,0.97,-0.01,0.0,0.04,3914,2019-03-25 16:54:50:940
0.95,0.78,10.15,0.47,0.53,0.97,-0.01,0.0,0.04,3917,2019-03-25 16:54:50:943
0.95,0.78,10.15,0.47,0.53,0.97,-0.01,0.0,0.04,3922,2019-03-25 16:54:50:948
0.95,0.78,10.15,0.47,0.53,0.97,-0.01,0.0,0.04,3927,2019-03-25 16:54:50:953
0.51,1.92,9.04,0.0,1.44,-0.78,-0.02,0.0,0.07,3932,2019-03-25 16:54:50:958
0.51,1.92,9.04,0.0,1.44,-0.78,-0.02,0.0,0.07,3937,2019-03-25 16:54:50:963
0.51,1.92,9.04,0.0,1.44,-0.78,-0.02,0.0,0.07,3942,2019-03-25 16:54:50:968
0.51,1.92,9.04,0.0,1.44,-0.78,-0.02,0.0,0.07,3947,2019-03-25 16:54:50:973
0.51,1.92,9.04,0.0,1.44,-0.78,-0.02,0.0,0.07,3953,2019-03-25 16:54:50:979
0.51,1.92,9.04,0.0,1.44,-0.78,-0.02,0.0,0.07,3958,2019-03-25 16:54:50:984
0.05,2.26,10.45,-0.43,1.76,0.62,0.0,0.0,0.08,3962,2019-03-25 16:54:50:988
0.05,2.26,10.45,-0.43,1.76,0.62,0.0,0.0,0.08,3967,2019-03-25 16:54:50:993
0.05,2.26,10.45,-0.43,1.76,0.62,0.0,0.0,0.08,3972,2019-03-25 16:54:50:998
0.05,2.26,10.45,-0.43,1.76,0.62,0.0,0.0,0.08,3977,2019-03-25 16:54:51:003
0.47,2.2,8.99,-0.02,1.57,-0.83,-0.02,0.01,0.09,3982,2019-03-25 16:54:51:008
0.47,2.2,8.99,-0.02,1.57,-0.83,-0.02,0.01,0.09,3987,2019-03-25 16:54:51:013
0.47,2.2,8.99,-0.02,1.57,-0.83,-0.02,0.01,0.09,3991,2019-03-25 16:54:51:017
0.47,2.2,8.99,-0.02,1.57,-0.83,-0.02,0.01,0.09,3997,2019-03-25 16:54:51:023
0.47,2.2,8.99,-0.02,1.57,-0.83,-0.02,0.01,0.09,4002,2019-03-25 16:54:51:028
0.47,2.2,8.99,-0.02,1.57,-0.83,-0.02,0.01,0.09,4007,2019-03-25 16:54:51:033
1.53,1.3,10.47,0.93,0.46,0.47,0.01,0.0,0.06,4012,2019-03-25 16:54:51:038
1.53,1.3,10.47,0.93,0.46,0.47,0.01,0.0,0.06,4017,2019-03-25 16:54:51:043
1.53,1.3,10.47,0.93,0.46,0.47,0.01,0.0,0.06,4023,2019-03-25 16:54:51:049
1.53,1.3,10.47,0.93,0.46,0.47,0.01,0.0,0.06,4027,2019-03-25 16:54:51:053
0.93,0.01,8.58,0.33,-0.9,-1.34,0.03,0.0,0.03,4032,2019-03-25 16:54:51:058
0.93,0.01,8.58,0.33,-0.9,-1.34,0.03,0.0,0.03,4037,2019-03-25 16:54:51:063
0.93,0.01,8.58,0.33,-0.9,-1.34,0.03,0.0,0.03,4041,2019-03-25 16:54:51:067
0.93,0.01,8.58,0.33,-0.9,-1.34,0.03,0.0,0.03,4047,2019-03-25 16:54:51:073
1.5,0.35,9.7,0.8,-0.67,-0.25,0.05,0.0,0.02,4052,2019-03-25 16:54:51:078
1.5,0.35,9.7,0.8,-0.67,-0.25,0.05,0.0,0.02,4057,2019-03-25 16:54:51:083
1.5,0.35,9.7,0.8,-0.67,-0.25,0.05,0.0,0.02,4062,2019-03-25 16:54:51:088
1.5,0.35,9.7,0.8,-0.67,-0.25,0.05,0.0,0.02,4068,2019-03-25 16:54:51:094
0.34,0.0,8.87,-0.42,-1.15,-1.1,0.0,-0.01,0.02,4072,2019-03-25 16:54:51:098
0.34,0.0,8.87,-0.42,-1.15,-1.1,0.0,-0.01,0.02,4077,2019-03-25 16:54:51:103
0.34,0.0,8.87,-0.42,-1.15,-1.1,0.0,-0.01,0.02,4083,2019-03-25 16:54:51:109
0.34,0.0,8.87,-0.42,-1.15,-1.1,0.0,-0.01,0.02,4087,2019-03-25 16:54:51:113
0.74,-0.34,10.08,0.03,-1.41,0.17,0.02,0.01,0.03,4092,2019-03-25 16:54:51:118
0.74,-0.34,10.08,0.03,-1.41,0.17,0.02,0.01,0.03,4097,2019-03-25 16:54:51:123
0.74,-0.34,10.08,0.03,-1.41,0.17,0.02,0.01,0.03,4101,2019-03-25 16:54:51:127
0.74,-0.34,10.08,0.03,-1.41,0.17,0.02,0.01,0.03,4107,2019-03-25 16:54:51:133
0.62,-0.42,8.66,-0.06,-1.4,-1.2,0.02,0.0,0.02,4112,2019-03-25 16:54:51:138
0.62,-0.42,8.66,-0.06,-1.4,-1.2,0.02,0.0,0.02,4116,2019-03-25 16:54:51:142
0.62,-0.42,8.66,-0.06,-1.4,-1.2,0.02,0.0,0.02,4122,2019-03-25 16:54:51:148
0.62,-0.42,8.66,-0.06,-1.4,-1.2,0.02,0.0,0.02,4128,2019-03-25 16:54:51:154
0.62,-0.42,8.66,-0.06,-1.4,-1.2,0.02,0.0,0.02,4132,2019-03-25 16:54:51:158
0.43,-0.22,10.5,-0.28,-0.98,0.57,0.03,0.01,0.04,4137,2019-03-25 16:54:51:163
0.43,-0.22,10.5,-0.28,-0.98,0.57,0.03,0.01,0.04,4142,2019-03-25 16:54:51:168
0.43,-0.22,10.5,-0.28,-0.98,0.57,0.03,0.01,0.04,4147,2019-03-25 16:54:51:173
0.44,-0.72,9.49,-0.35,-1.22,-0.38,0.01,0.01,0.07,4152,2019-03-25 16:54:51:178
0.44,-0.72,9.49,-0.35,-1.22,-0.38,0.01,0.01,0.07,4158,2019-03-25 16:54:51:184
0.44,-0.72,9.49,-0.35,-1.22,-0.38,0.01,0.01,0.07,4162,2019-03-25 16:54:51:188
0.44,-0.72,9.49,-0.35,-1.22,-0.38,0.01,0.01,0.07,4167,2019-03-25 16:54:51:193
0.77,-0.88,11.57,-0.01,-1.01,1.59,0.0,0.0,0.1,4172,2019-03-25 16:54:51:198
0.77,-0.88,11.57,-0.01,-1.01,1.59,0.0,0.0,0.1,4177,2019-03-25 16:54:51:203
0.77,-0.88,11.57,-0.01,-1.01,1.59,0.0,0.0,0.1,4182,2019-03-25 16:54:51:208
0.77,-0.88,11.57,-0.01,-1.01,1.59,0.0,0.0,0.1,4187,2019-03-25 16:54:51:213
0.79,-1.99,10.13,0.04,-1.66,0.07,0.03,0.01,0.14,4192,2019-03-25 16:54:51:218
0.79,-1.99,10.13,0.04,-1.66,0.07,0.03,0.01,0.14,4197,2019-03-25 16:54:51:223
0.79,-1.99,10.13,0.04,-1.66,0.07,0.03,0.01,0.14,4202,2019-03-25 16:54:51:228
0.79,-1.99,10.13,0.04,-1.66,0.07,0.03,0.01,0.14,4207,2019-03-25 16:54:51:233
0.86,-0.63,10.44,0.19,-0.1,0.46,0.03,0.0,0.16,4211,2019-03-25 16:54:51:237
0.86,-0.63,10.44,0.19,-0.1,0.46,0.03,0.0,0.16,4217,2019-03-25 16:54:51:243
0.86,-0.63,10.44,0.19,-0.1,0.46,0.03,0.0,0.16,4222,2019-03-25 16:54:51:248
0.86,-0.63,10.44,0.19,-0.1,0.46,0.03,0.0,0.16,4226,2019-03-25 16:54:51:252
1.26,0.8,8.43,0.53,1.24,-1.59,0.08,0.0,0.11,4232,2019-03-25 16:54:51:258
1.26,0.8,8.43,0.53,1.24,-1.59,0.08,0.0,0.11,4237,2019-03-25 16:54:51:263
1.26,0.8,8.43,0.53,1.24,-1.59,0.08,0.0,0.11,4242,2019-03-25 16:54:51:268
1.26,0.8,8.43,0.53,1.24,-1.59,0.08,0.0,0.11,4247,2019-03-25 16:54:51:273
1.26,0.8,8.43,0.53,1.24,-1.59,0.08,0.0,0.11,4252,2019-03-25 16:54:51:278
1.26,0.8,8.43,0.53,1.24,-1.59,0.08,0.0,0.11,4257,2019-03-25 16:54:51:283
1.26,0.8,8.43,0.53,1.24,-1.59,0.08,0.0,0.11,4262,2019-03-25 16:54:51:288
1.72,3.08,10.33,0.93,3.3,0.35,0.03,-0.01,0.03,4267,2019-03-25 16:54:51:293
1.72,3.08,10.33,0.93,3.3,0.35,0.03,-0.01,0.03,4272,2019-03-25 16:54:51:298
1.72,3.08,10.33,0.93,3.3,0.35,0.03,-0.01,0.03,4277,2019-03-25 16:54:51:303
1.72,3.08,10.33,0.93,3.3,0.35,0.03,-0.01,0.03,4282,2019-03-25 16:54:51:308
3.13,4.39,9.6,2.12,4.25,-0.41,0.03,0.0,-0.1,4286,2019-03-25 16:54:51:312
3.13,4.39,9.6,2.12,4.25,-0.41,0.03,0.0,-0.1,4292,2019-03-25 16:54:51:318
3.13,4.39,9.6,2.12,4.25,-0.41,0.03,0.0,-0.1,4296,2019-03-25 16:54:51:322
3.13,4.39,9.6,2.12,4.25,-0.41,0.03,0.0,-0.1,4302,2019-03-25 16:54:51:328
3.13,4.39,9.6,2.12,4.25,-0.41,0.03,0.0,-0.1,4307,2019-03-25 16:54:51:333
-0.78,0.11,9.0,-1.65,-0.38,-0.93,-0.01,0.0,-0.19,4312,2019-03-25 16:54:51:338
-0.78,0.11,9.0,-1.65,-0.38,-0.93,-0.01,0.0,-0.19,4317,2019-03-25 16:54:51:343
-0.78,0.11,9.0,-1.65,-0.38,-0.93,-0.01,0.0,-0.19,4324,2019-03-25 16:54:51:350
-0.78,0.11,9.0,-1.65,-0.38,-0.93,-0.01,0.0,-0.19,4327,2019-03-25 16:54:51:353
0.96,-0.76,10.3,0.02,-1.21,0.44,0.0,0.0,-0.05,4332,2019-03-25 16:54:51:358
0.96,-0.76,10.3,0.02,-1.21,0.44,0.0,0.0,-0.05,4337,2019-03-25 16:54:51:363
0.96,-0.76,10.3,0.02,-1.21,0.44,0.0,0.0,-0.05,4342,2019-03-25 16:54:51:368
0.96,-0.76,10.3,0.02,-1.21,0.44,0.0,0.0,-0.05,4347,2019-03-25 16:54:51:373
0.96,-0.76,10.3,0.02,-1.21,0.44,0.0,0.0,-0.05,4351,2019-03-25 16:54:51:377
0.96,-0.76,10.3,0.02,-1.21,0.44,0.0,0.0,-0.05,4357,2019-03-25 16:54:51:383
1.11,-0.31,10.37,0.06,-0.81,0.38,0.01,0.0,-0.03,4361,2019-03-25 16:54:51:387
1.11,-0.31,10.37,0.06,-0.81,0.38,0.01,0.0,-0.03,4367,2019-03-25 16:54:51:393
1.11,-0.31,10.37,0.06,-0.81,0.38,0.01,0.0,-0.03,4372,2019-03-25 16:54:51:398
1.11,-0.31,10.37,0.06,-0.81,0.38,0.01,0.0,-0.03,4377,2019-03-25 16:54:51:403
1.11,-0.31,10.37,0.06,-0.81,0.38,0.01,0.0,-0.03,4382,2019-03-25 16:54:51:408
1.11,-0.31,10.37,0.06,-0.81,0.38,0.01,0.0,-0.03,4387,2019-03-25 16:54:51:413
1.59,0.99,9.78,0.6,0.16,0.1,0.02,0.0,-0.02,4392,2019-03-25 16:54:51:418
1.59,0.99,9.78,0.6,0.16,0.1,0.02,0.0,-0.02,4397,2019-03-25 16:54:51:423
1.59,0.99,9.78,0.6,0.16,0.1,0.02,0.0,-0.02,4402,2019-03-25 16:54:51:428
1.59,0.99,9.78,0.6,0.16,0.1,0.02,0.0,-0.02,4407,2019-03-25 16:54:51:433
1.59,0.99,9.78,0.6,0.16,0.1,0.02,0.0,-0.02,4412,2019-03-25 16:54:51:438
1.59,0.99,9.78,0.6,0.16,0.1,0.02,0.0,-0.02,4417,2019-03-25 16:54:51:443
1.59,0.99,9.78,0.6,0.16,0.1,0.02,0.0,-0.02,4423,2019-03-25 16:54:51:449
0.69,1.38,8.99,-0.31,0.28,-0.68,0.0,0.0,-0.03,4427,2019-03-25 16:54:51:453
0.69,1.38,8.99,-0.31,0.28,-0.68,0.0,0.0,-0.03,4432,2019-03-25 16:54:51:458
0.69,1.38,8.99,-0.31,0.28,-0.68,0.0,0.0,-0.03,4437,2019-03-25 16:54:51:463
0.8,2.27,11.71,-0.31,0.28,-0.68,0.02,-0.02,-0.09,4442,2019-03-25 16:54:51:468
0.8,2.27,11.71,-0.31,0.28,-0.68,0.02,-0.02,-0.09,4446,2019-03-25 16:54:51:472
0.8,2.27,11.71,-0.16,1.08,1.96,0.0,0.0,-0.11,4452,2019-03-25 16:54:51:478
0.8,2.27,11.71,-0.16,1.08,1.96,0.0,0.0,-0.11,4457,2019-03-25 16:54:51:483
0.8,2.27,11.71,-0.16,1.08,1.96,0.0,0.0,-0.11,4464,2019-03-25 16:54:51:490
0.8,2.27,11.71,-0.16,1.08,1.96,0.0,0.0,-0.11,4467,2019-03-25 16:54:51:493
0.8,2.27,11.71,-0.16,1.08,1.96,0.0,0.0,-0.11,4472,2019-03-25 16:54:51:498
0.8,2.27,11.71,-0.16,1.08,1.96,0.0,0.0,-0.11,4477,2019-03-25 16:54:51:503
1.61,2.3,11.7,-0.16,1.08,1.96,0.0,0.0,-0.11,4483,2019-03-25 16:54:51:509
1.61,2.3,11.7,0.72,1.35,1.79,-0.02,0.0,-0.12,4487,2019-03-25 16:54:51:513
1.61,2.3,11.7,0.72,1.35,1.79,-0.02,0.0,-0.12,4492,2019-03-25 16:54:51:518
1.25,2.05,10.64,0.72,1.35,1.79,-0.02,0.0,-0.12,4497,2019-03-25 16:54:51:523
1.25,2.05,10.64,0.72,1.35,1.79,-0.02,0.0,-0.12,4501,2019-03-25 16:54:51:527
1.25,2.05,10.64,0.72,1.35,1.79,-0.02,0.0,-0.12,4507,2019-03-25 16:54:51:533
0.44,2.71,9.98,-0.62,1.58,-0.07,-0.02,0.05,-0.1,4512,2019-03-25 16:54:51:538
0.44,2.71,9.98,-0.62,1.58,-0.07,-0.02,0.05,-0.1,4517,2019-03-25 16:54:51:543
0.44,2.71,9.98,-0.62,1.58,-0.07,-0.02,0.05,-0.1,4522,2019-03-25 16:54:51:548
0.44,2.71,9.98,-0.62,1.58,-0.07,-0.02,0.05,-0.1,4527,2019-03-25 16:54:51:553
0.67,2.04,8.06,-0.32,0.65,-1.88,-0.03,-0.01,-0.13,4533,2019-03-25 16:54:51:559
0.67,2.04,8.06,-0.32,0.65,-1.88,-0.03,-0.01,-0.13,4537,2019-03-25 16:54:51:563
0.67,2.04,8.06,-0.32,0.65,-1.88,-0.03,-0.01,-0.13,4542,2019-03-25 16:54:51:568
0.67,2.04,8.06,-0.32,0.65,-1.88,-0.03,-0.01,-0.13,4547,2019-03-25 16:54:51:573
0.67,2.04,8.06,-0.32,0.65,-1.88,-0.03,-0.01,-0.13,4552,2019-03-25 16:54:51:578
0.67,2.04,8.06,-0.32,0.65,-1.88,-0.03,-0.01,-0.13,4557,2019-03-25 16:54:51:583
1.14,1.7,10.34,0.21,0.09,0.33,-0.07,-0.01,-0.13,4562,2019-03-25 16:54:51:588
1.14,1.7,10.34,0.21,0.09,0.33,-0.07,-0.01,-0.13,4567,2019-03-25 16:54:51:593
1.14,1.7,10.34,-0.91,-0.02,2.88,-0.03,0.05,-0.13,4572,2019-03-25 16:54:51:598
1.14,1.7,10.34,-0.91,-0.02,2.88,-0.03,0.05,-0.13,4577,2019-03-25 16:54:51:603
1.14,1.7,10.34,-0.91,-0.02,2.88,-0.03,0.05,-0.13,4582,2019-03-25 16:54:51:608
1.14,1.7,10.34,-0.91,-0.02,2.88,-0.03,0.05,-0.13,4588,2019-03-25 16:54:51:614
0.62,1.23,9.81,-0.21,-0.5,-0.36,-0.01,0.0,-0.11,4592,2019-03-25 16:54:51:618
0.62,1.23,9.81,-0.21,-0.5,-0.36,-0.01,0.0,-0.11,4597,2019-03-25 16:54:51:623
0.62,1.23,9.81,-0.21,-0.5,-0.36,-0.01,0.0,-0.11,4603,2019-03-25 16:54:51:629
0.62,1.23,9.81,-0.21,-0.5,-0.36,-0.01,0.0,-0.11,4607,2019-03-25 16:54:51:633
0.4,1.11,9.79,-0.47,-0.54,-0.32,0.0,-0.01,-0.1,4612,2019-03-25 16:54:51:638
0.4,1.11,9.79,-0.47,-0.54,-0.32,0.0,-0.01,-0.1,4617,2019-03-25 16:54:51:643
0.4,1.11,9.79,-0.47,-0.54,-0.32,0.0,-0.01,-0.1,4622,2019-03-25 16:54:51:648
0.4,1.11,9.79,-0.47,-0.54,-0.32,0.0,-0.01,-0.1,4627,2019-03-25 16:54:51:653
0.4,1.11,9.79,-0.47,-0.54,-0.32,0.0,-0.01,-0.1,4633,2019-03-25 16:54:51:659
0.4,1.11,9.79,-0.47,-0.54,-0.32,0.0,-0.01,-0.1,4637,2019-03-25 16:54:51:663
1.15,-0.15,9.84,0.25,-1.67,-0.26,-0.01,-0.03,-0.11,4642,2019-03-25 16:54:51:668
1.15,-0.15,9.84,0.25,-1.67,-0.26,-0.01,-0.03,-0.11,4647,2019-03-25 16:54:51:673
1.15,-0.15,9.84,0.25,-1.67,-0.26,-0.01,-0.03,-0.11,4652,2019-03-25 16:54:51:678
0.89,0.66,10.93,0.11,-0.74,0.91,-0.01,-0.07,-0.09,4658,2019-03-25 16:54:51:684
0.89,0.66,10.93,0.11,-0.74,0.91,-0.01,-0.07,-0.09,4662,2019-03-25 16:54:51:688
0.89,0.66,10.93,0.11,-0.74,0.91,-0.01,-0.07,-0.09,4667,2019-03-25 16:54:51:693
0.89,0.66,10.93,0.11,-0.74,0.91,-0.01,-0.07,-0.09,4672,2019-03-25 16:54:51:698
0.89,0.66,10.93,0.11,-0.74,0.91,-0.01,-0.07,-0.09,4677,2019-03-25 16:54:51:703
0.41,1.19,9.55,-0.22,-0.1,-0.41,-0.01,-0.06,-0.08,4682,2019-03-25 16:54:51:708
0.41,1.19,9.55,-0.22,-0.1,-0.41,-0.01,-0.06,-0.08,4687,2019-03-25 16:54:51:713
0.41,1.19,9.55,-0.22,-0.1,-0.41,-0.01,-0.06,-0.08,4692,2019-03-25 16:54:51:718
0.41,1.19,9.55,-0.22,-0.1,-0.41,-0.01,-0.06,-0.08,4697,2019-03-25 16:54:51:723
-0.31,0.69,12.95,-0.82,-0.41,2.96,-0.06,-0.04,-0.04,4702,2019-03-25 16:54:51:728
-0.31,0.69,12.95,-0.82,-0.41,2.96,-0.06,-0.04,-0.04,4707,2019-03-25 16:54:51:733
-0.31,0.69,12.95,-0.82,-0.41,2.96,-0.06,-0.04,-0.04,4712,2019-03-25 16:54:51:738
-0.31,0.69,12.95,-0.82,-0.41,2.96,-0.06,-0.04,-0.04,4717,2019-03-25 16:54:51:743
1.14,-1.4,11.01,0.63,-2.25,0.84,-0.02,-0.03,0.0,4723,2019-03-25 16:54:51:749
1.14,-1.4,11.01,0.63,-2.25,0.84,-0.02,-0.03,0.0,4728,2019-03-25 16:54:51:754
1.14,-1.4,11.01,0.63,-2.25,0.84,-0.02,-0.03,0.0,4732,2019-03-25 16:54:51:758
0.5,-0.85,10.74,0.11,-1.44,0.44,0.03,-0.03,0.04,4738,2019-03-25 16:54:51:764
0.5,-0.85,10.74,0.11,-1.44,0.44,0.03,-0.03,0.04,4742,2019-03-25 16:54:51:768
0.5,-0.85,10.74,0.11,-1.44,0.44,0.03,-0.03,0.04,4747,2019-03-25 16:54:51:773
0.5,-0.85,10.74,0.11,-1.44,0.44,0.03,-0.03,0.04,4752,2019-03-25 16:54:51:778
0.5,-0.85,10.74,0.11,-1.44,0.44,0.03,-0.03,0.04,4757,2019-03-25 16:54:51:783
0.44,-0.44,9.8,0.07,-0.83,-0.3,0.04,0.02,0.14,4762,2019-03-25 16:54:51:788
0.44,-0.44,9.8,0.07,-0.83,-0.3,0.04,0.02,0.14,4767,2019-03-25 16:54:51:793
0.44,-0.44,9.8,0.07,-0.83,-0.3,0.04,0.02,0.14,4772,2019-03-25 16:54:51:798
0.44,-0.44,9.8,0.07,-0.83,-0.3,0.04,0.02,0.14,4777,2019-03-25 16:54:51:803
1.17,1.1,10.79,0.71,0.72,0.75,-0.02,0.02,0.18,4782,2019-03-25 16:54:51:808
1.17,1.1,10.79,0.71,0.72,0.75,-0.02,0.02,0.18,4787,2019-03-25 16:54:51:813
1.17,1.1,10.79,0.71,0.72,0.75,-0.02,0.02,0.18,4792,2019-03-25 16:54:51:818
1.17,1.1,10.79,0.71,0.72,0.75,-0.02,0.02,0.18,4796,2019-03-25 16:54:51:822
1.17,1.85,9.99,0.67,1.45,0.12,0.0,0.04,0.18,4801,2019-03-25 16:54:51:827
1.17,1.85,9.99,0.67,1.45,0.12,0.0,0.04,0.18,4808,2019-03-25 16:54:51:834
1.17,1.85,9.99,0.67,1.45,0.12,0.0,0.04,0.18,4812,2019-03-25 16:54:51:838
1.53,3.08,11.03,0.99,2.49,1.01,-0.04,0.04,0.17,4817,2019-03-25 16:54:51:843
1.53,3.08,11.03,0.99,2.49,1.01,-0.04,0.04,0.17,4822,2019-03-25 16:54:51:848
1.53,3.08,11.03,0.99,2.49,1.01,-0.04,0.04,0.17,4827,2019-03-25 16:54:51:853
1.53,3.08,11.03,0.99,2.49,1.01,-0.04,0.04,0.17,4832,2019-03-25 16:54:51:858
1.98,2.8,10.93,1.38,2.0,0.87,0.0,0.05,0.1,4837,2019-03-25 16:54:51:863
1.98,2.8,10.93,1.38,2.0,0.87,0.0,0.05,0.1,4843,2019-03-25 16:54:51:869
1.98,2.8,10.93,1.38,2.0,0.87,0.0,0.05,0.1,4847,2019-03-25 16:54:51:873
1.98,2.8,10.93,1.38,2.0,0.87,0.0,0.05,0.1,4852,2019-03-25 16:54:51:878
2.56,1.68,9.79,1.82,0.7,-0.4,0.0,0.02,0.01,4857,2019-03-25 16:54:51:883
2.56,1.68,9.79,1.82,0.7,-0.4,0.0,0.02,0.01,4862,2019-03-25 16:54:51:888
2.56,1.68,9.79,1.82,0.7,-0.4,0.0,0.02,0.01,4867,2019-03-25 16:54:51:893
2.56,1.68,9.79,1.82,0.7,-0.4,0.0,0.02,0.01,4871,2019-03-25 16:54:51:897
1.05,2.19,10.46,0.14,1.08,0.26,-0.01,0.0,-0.08,4877,2019-03-25 16:54:51:903
1.05,2.19,10.46,0.14,1.08,0.26,-0.01,0.0,-0.08,4882,2019-03-25 16:54:51:908
1.05,2.19,10.46,0.14,1.08,0.26,-0.01,0.0,-0.08,4887,2019-03-25 16:54:51:913
1.05,2.19,10.46,0.14,1.08,0.26,-0.01,0.0,-0.08,4893,2019-03-25 16:54:51:919
1.61,0.54,8.22,0.55,-0.6,-1.83,0.01,-0.01,-0.15,4897,2019-03-25 16:54:51:923
1.61,0.54,8.22,0.55,-0.6,-1.83,0.01,-0.01,-0.15,4902,2019-03-25 16:54:51:928
1.61,0.54,8.22,0.55,-0.6,-1.83,0.01,-0.01,-0.15,4907,2019-03-25 16:54:51:933
1.61,0.54,8.22,0.55,-0.6,-1.83,0.01,-0.01,-0.15,4912,2019-03-25 16:54:51:938
1.7,0.54,10.94,0.53,-0.69,1.02,-0.05,-0.01,-0.15,4917,2019-03-25 16:54:51:943
1.7,0.54,10.94,0.53,-0.69,1.02,-0.05,-0.01,-0.15,4922,2019-03-25 16:54:51:948
1.7,0.54,10.94,0.53,-0.69,1.02,-0.05,-0.01,-0.15,4929,2019-03-25 16:54:51:955
1.7,0.54,10.94,0.53,-0.69,1.02,-0.05,-0.01,-0.15,4932,2019-03-25 16:54:51:958
1.03,-0.63,9.24,-0.29,-1.92,-0.65,0.0,-0.01,-0.18,4937,2019-03-25 16:54:51:963
1.03,-0.63,9.24,-0.29,-1.92,-0.65,0.0,-0.01,-0.18,4942,2019-03-25 16:54:51:968
1.03,-0.63,9.24,-0.29,-1.92,-0.65,0.0,-0.01,-0.18,4947,2019-03-25 16:54:51:973
1.03,-0.63,9.24,-0.29,-1.92,-0.65,0.0,-0.01,-0.18,4952,2019-03-25 16:54:51:978
0.81,0.03,9.73,-0.52,-1.27,-0.2,-0.03,0.0,-0.17,4957,2019-03-25 16:54:51:983
0.81,0.03,9.73,-0.52,-1.27,-0.2,-0.03,0.0,-0.17,4962,2019-03-25 16:54:51:988
0.81,0.03,9.73,-0.52,-1.27,-0.2,-0.03,0.0,-0.17,4967,2019-03-25 16:54:51:993
0.81,0.03,9.73,-0.52,-1.27,-0.2,-0.03,0.0,-0.17,4972,2019-03-25 16:54:51:998
0.04,-0.02,9.14,-1.24,-1.25,-0.79,-0.01,-0.01,-0.14,4977,2019-03-25 16:54:52:003
0.04,-0.02,9.14,-1.24,-1.25,-0.79,-0.01,-0.01,-0.14,4982,2019-03-25 16:54:52:008
0.04,-0.02,9.14,-1.24,-1.25,-0.79,-0.01,-0.01,-0.14,4987,2019-03-25 16:54:52:013
0.04,-0.02,9.14,-1.24,-1.25,-0.79,-0.01,-0.01,-0.14,4992,2019-03-25 16:54:52:018
0.34,-0.72,10.39,-0.89,-1.75,0.39,-0.05,-0.02,-0.11,4997,2019-03-25 16:54:52:023
0.34,-0.72,10.39,-0.89,-1.75,0.39,-0.05,-0.02,-0.11,5002,2019-03-25 16:54:52:028
0.34,-0.72,10.39,-0.89,-1.75,0.39,-0.05,-0.02,-0.11,5008,2019-03-25 16:54:52:034
1.05,-1.01,10.78,-0.12,-1.68,0.76,-0.01,0.01,-0.09,5027,2019-03-25 16:54:52:053
0.28,-1.19,10.68,-0.8,-1.49,0.66,0.02,0.01,-0.03,5028,2019-03-25 16:54:52:054
0.28,-1.19,10.68,-0.8,-1.49,0.66,0.02,0.01,-0.03,5031,2019-03-25 16:54:52:057
0.28,-1.19,10.68,-0.8,-1.49,0.66,0.02,0.01,-0.03,5032,2019-03-25 16:54:52:058
0.28,-1.19,10.68,-0.8,-1.49,0.66,0.02,0.01,-0.03,5032,2019-03-25 16:54:52:058
0.28,-1.19,10.68,-0.8,-1.49,0.66,0.02,0.01,-0.03,5037,2019-03-25 16:54:52:063
0.28,-1.19,10.68,-0.8,-1.49,0.66,0.02,0.01,-0.03,5042,2019-03-25 16:54:52:068
0.05,-1.46,9.9,-0.8,-1.49,0.66,0.05,0.01,0.0,5047,2019-03-25 16:54:52:073
0.05,-1.46,9.9,-0.8,-1.49,0.66,0.05,0.01,0.0,5052,2019-03-25 16:54:52:078
0.05,-1.46,9.9,-0.8,-1.49,0.66,0.05,0.01,0.0,5057,2019-03-25 16:54:52:083
0.05,-1.46,9.9,-0.86,-1.38,0.02,0.05,0.01,0.0,5062,2019-03-25 16:54:52:088
0.05,-1.46,9.9,-0.86,-1.38,0.02,0.05,0.01,0.0,5067,2019-03-25 16:54:52:093
-0.13,-1.38,9.04,-0.86,-1.38,0.02,0.05,0.01,0.0,5073,2019-03-25 16:54:52:099
-0.13,-1.38,9.04,-0.85,-0.94,-0.79,0.0,0.0,0.08,5076,2019-03-25 16:54:52:102
-0.13,-1.38,9.04,-0.85,-0.94,-0.79,0.0,0.0,0.08,5082,2019-03-25 16:54:52:108
-0.13,-1.38,9.04,-0.85,-0.94,-0.79,0.0,0.0,0.08,5087,2019-03-25 16:54:52:113
0.77,0.09,10.02,-0.85,-0.94,-0.79,0.02,0.0,0.13,5092,2019-03-25 16:54:52:118
0.77,0.09,10.02,0.14,0.62,0.05,0.02,0.0,0.13,5097,2019-03-25 16:54:52:123
0.77,0.09,10.02,0.14,0.62,0.05,0.02,0.0,0.13,5102,2019-03-25 16:54:52:128
0.77,0.09,10.02,0.14,0.62,0.05,0.02,0.0,0.13,5107,2019-03-25 16:54:52:133
0.77,0.09,10.02,0.14,0.62,0.05,0.02,0.0,0.13,5112,2019-03-25 16:54:52:138
0.77,0.09,10.02,0.14,0.62,0.05,0.02,0.0,0.13,5117,2019-03-25 16:54:52:143
0.58,1.06,10.31,0.07,1.58,0.34,0.0,0.01,0.11,5122,2019-03-25 16:54:52:148
0.58,1.06,10.31,0.07,1.58,0.34,0.0,0.01,0.11,5127,2019-03-25 16:54:52:153
0.58,1.06,10.31,0.07,1.58,0.34,0.0,0.01,0.11,5133,2019-03-25 16:54:52:159
1.83,2.16,8.32,1.3,2.48,-1.59,-0.01,0.03,0.09,5137,2019-03-25 16:54:52:163
1.83,2.16,8.32,1.3,2.48,-1.59,-0.01,0.03,0.09,5142,2019-03-25 16:54:52:168
1.83,2.16,8.32,1.3,2.48,-1.59,-0.01,0.03,0.09,5147,2019-03-25 16:54:52:173
3.18,4.1,12.81,2.45,4.06,2.82,0.0,0.0,0.0,5152,2019-03-25 16:54:52:178
3.18,4.1,12.81,2.45,4.06,2.82,0.0,0.0,0.0,5157,2019-03-25 16:54:52:183
3.18,4.1,12.81,2.45,4.06,2.82,0.0,0.0,0.0,5162,2019-03-25 16:54:52:188
3.18,4.1,12.81,2.45,4.06,2.82,0.0,0.0,0.0,5167,2019-03-25 16:54:52:193
1.19,0.0,10.97,0.35,-0.2,0.85,-0.02,0.0,-0.14,5172,2019-03-25 16:54:52:198
1.19,0.0,10.97,0.35,-0.2,0.85,-0.02,0.0,-0.14,5177,2019-03-25 16:54:52:203
1.19,0.0,10.97,0.35,-0.2,0.85,-0.02,0.0,-0.14,5182,2019-03-25 16:54:52:208
1.19,0.0,10.97,0.35,-0.2,0.85,-0.02,0.0,-0.14,5187,2019-03-25 16:54:52:213
1.19,0.0,10.97,0.35,-0.2,0.85,-0.02,0.0,-0.14,5192,2019-03-25 16:54:52:218
1.19,0.0,10.97,0.35,-0.2,0.85,-0.02,0.0,-0.14,5196,2019-03-25 16:54:52:222
0.7,-0.4,10.24,-0.15,-0.58,0.17,-0.03,0.01,-0.23,5203,2019-03-25 16:54:52:229
0.7,-0.4,10.24,-0.15,-0.58,0.17,-0.03,0.01,-0.23,5207,2019-03-25 16:54:52:233
0.7,-0.4,10.24,-0.15,-0.58,0.17,0.03,-0.02,-0.25,5211,2019-03-25 16:54:52:237
0.7,-0.4,10.24,0.37,-0.45,-2.55,0.03,-0.02,-0.25,5217,2019-03-25 16:54:52:243
0.7,-0.4,10.24,0.37,-0.45,-2.55,0.03,-0.02,-0.25,5222,2019-03-25 16:54:52:248
0.7,-0.4,10.24,0.37,-0.45,-2.55,0.03,-0.02,-0.25,5227,2019-03-25 16:54:52:253
0.7,-0.4,10.24,0.37,-0.45,-2.55,0.03,-0.02,-0.25,5233,2019-03-25 16:54:52:259
0.7,-0.4,10.24,0.37,-0.45,-2.55,0.03,-0.02,-0.25,5237,2019-03-25 16:54:52:263
0.14,1.11,10.54,-0.61,0.6,0.69,0.02,-0.03,-0.14,5243,2019-03-25 16:54:52:269
0.14,1.11,10.54,-0.61,0.6,0.69,0.02,-0.03,-0.14,5247,2019-03-25 16:54:52:273
0.14,1.11,10.54,-0.61,0.6,0.69,0.0,-0.01,-0.05,5252,2019-03-25 16:54:52:278
0.14,1.11,10.54,0.03,-0.02,-0.51,0.0,-0.01,-0.05,5257,2019-03-25 16:54:52:283
0.14,1.11,10.54,0.03,-0.02,-0.51,0.0,-0.01,-0.05,5262,2019-03-25 16:54:52:288
0.14,1.11,10.54,0.03,-0.02,-0.51,0.0,-0.01,-0.05,5267,2019-03-25 16:54:52:293
-0.34,1.42,10.1,-1.22,0.39,0.13,0.03,-0.05,0.0,5272,2019-03-25 16:54:52:298
-0.34,1.42,10.1,-1.22,0.39,0.13,0.03,-0.05,0.0,5277,2019-03-25 16:54:52:303
-0.34,1.42,10.1,-1.22,0.39,0.13,0.03,-0.05,0.0,5282,2019-03-25 16:54:52:308
-0.34,1.42,10.1,-1.22,0.39,0.13,0.03,-0.05,0.0,5287,2019-03-25 16:54:52:313
1.18,1.81,9.57,0.29,0.54,-0.46,0.0,0.0,0.02,5292,2019-03-25 16:54:52:318
1.18,1.81,9.57,0.29,0.54,-0.46,0.0,0.0,0.02,5297,2019-03-25 16:54:52:323
1.18,1.81,9.57,0.29,0.54,-0.46,0.0,0.0,0.02,5302,2019-03-25 16:54:52:328
1.18,1.81,9.57,0.29,0.54,-0.46,0.0,0.0,0.02,5308,2019-03-25 16:54:52:334
-0.35,1.77,10.15,-1.17,0.43,0.22,0.0,0.0,0.03,5312,2019-03-25 16:54:52:338
-0.35,1.77,10.15,-1.17,0.43,0.22,0.0,0.0,0.03,5317,2019-03-25 16:54:52:343
-0.35,1.77,10.15,-1.17,0.43,0.22,0.0,0.0,0.03,5322,2019-03-25 16:54:52:348
-0.35,1.77,10.15,-1.17,0.43,0.22,0.0,0.0,0.03,5327,2019-03-25 16:54:52:353
1.35,1.88,8.33,0.58,0.55,-1.61,0.01,0.03,0.04,5332,2019-03-25 16:54:52:358
1.35,1.88,8.33,0.58,0.55,-1.61,0.01,0.03,0.04,5337,2019-03-25 16:54:52:363
1.35,1.88,8.33,0.58,0.55,-1.61,0.01,0.03,0.04,5342,2019-03-25 16:54:52:368
0.84,1.96,10.46,0.22,0.8,0.59,-0.06,-0.01,0.03,5348,2019-03-25 16:54:52:374
0.84,1.96,10.46,0.22,0.8,0.59,-0.06,-0.01,0.03,5352,2019-03-25 16:54:52:378
0.84,1.96,10.46,0.22,0.8,0.59,-0.06,-0.01,0.03,5357,2019-03-25 16:54:52:383
0.84,1.96,10.46,0.22,0.8,0.59,-0.06,-0.01,0.03,5362,2019-03-25 16:54:52:388
0.84,1.96,10.46,0.22,0.8,0.59,-0.06,-0.01,0.03,5367,2019-03-25 16:54:52:393
0.84,1.96,10.46,0.22,0.8,0.59,-0.06,-0.01,0.03,5372,2019-03-25 16:54:52:398
0.84,1.96,10.46,0.22,0.8,0.59,-0.06,-0.01,0.03,5377,2019-03-25 16:54:52:403
0.55,2.26,9.12,0.02,1.01,-0.68,0.03,0.02,0.04,5382,2019-03-25 16:54:52:408
0.55,2.26,9.12,0.02,1.01,-0.68,0.03,0.02,0.04,5387,2019-03-25 16:54:52:413
0.55,2.26,9.12,0.02,1.01,-0.68,-0.06,0.04,0.07,5392,2019-03-25 16:54:52:418
0.55,2.26,9.12,0.02,1.01,-0.68,-0.06,0.04,0.07,5397,2019-03-25 16:54:52:423
0.55,2.26,9.12,0.02,1.01,-0.68,-0.06,0.04,0.07,5402,2019-03-25 16:54:52:428
0.55,2.26,9.12,0.02,1.01,-0.68,-0.06,0.04,0.07,5407,2019-03-25 16:54:52:433
0.55,2.26,9.12,0.02,1.01,-0.68,-0.06,0.04,0.07,5412,2019-03-25 16:54:52:438
0.55,2.26,9.12,0.02,1.01,-0.68,-0.06,0.04,0.07,5417,2019-03-25 16:54:52:443
1.56,1.44,10.44,0.93,-0.2,0.56,-0.02,0.02,0.05,5422,2019-03-25 16:54:52:448
1.56,1.44,10.44,0.93,-0.2,0.56,-0.02,0.02,0.05,5427,2019-03-25 16:54:52:453
1.56,1.44,10.44,0.93,-0.2,0.56,-0.02,0.02,0.05,5432,2019-03-25 16:54:52:458
1.56,1.44,10.44,0.93,-0.2,0.56,-0.02,0.02,0.05,5437,2019-03-25 16:54:52:463
1.56,1.44,10.44,0.93,-0.2,0.56,-0.02,0.02,0.05,5443,2019-03-25 16:54:52:469
0.51,2.05,10.35,-0.08,0.24,0.36,-0.02,0.03,0.09,5446,2019-03-25 16:54:52:472
0.51,2.05,10.35,-0.08,0.24,0.36,-0.02,0.03,0.09,5452,2019-03-25 16:54:52:478
0.51,2.05,10.35,-0.08,0.24,0.36,-0.02,0.03,0.09,5458,2019-03-25 16:54:52:484
0.51,2.05,10.35,-0.08,0.24,0.36,-0.02,0.03,0.09,5462,2019-03-25 16:54:52:488
0.51,2.05,10.35,-0.08,0.24,0.36,-0.02,0.03,0.09,5467,2019-03-25 16:54:52:493
0.52,1.8,10.77,-0.09,-0.17,0.95,-0.08,0.0,0.06,5472,2019-03-25 16:54:52:498
0.52,1.8,10.77,-0.09,-0.17,0.95,-0.08,0.0,0.06,5478,2019-03-25 16:54:52:504
0.52,1.8,10.77,-0.09,-0.17,0.95,-0.08,0.0,0.06,5482,2019-03-25 16:54:52:508
0.52,1.8,10.77,-0.09,-0.17,0.95,-0.08,0.0,0.06,5487,2019-03-25 16:54:52:513
0.52,1.8,10.77,-0.09,-0.17,0.95,-0.08,0.0,0.06,5492,2019-03-25 16:54:52:518
0.52,1.8,10.77,-0.09,-0.17,0.95,-0.08,0.0,0.06,5497,2019-03-25 16:54:52:523
0.52,1.8,10.77,-0.09,-0.17,0.95,-0.08,0.0,0.06,5502,2019-03-25 16:54:52:528
0.52,0.01,11.92,-0.04,-1.83,2.09,-0.09,0.0,0.01,5507,2019-03-25 16:54:52:533
0.52,0.01,11.92,-0.04,-1.83,2.09,-0.09,0.0,0.01,5512,2019-03-25 16:54:52:538
0.52,0.01,11.92,-0.04,-1.83,2.09,-0.09,0.0,0.01,5517,2019-03-25 16:54:52:543
0.52,0.01,11.92,-0.04,-1.83,2.09,-0.09,0.0,0.01,5522,2019-03-25 16:54:52:548
0.52,0.01,11.92,-0.04,-1.83,2.09,-0.09,0.0,0.01,5527,2019-03-25 16:54:52:553
0.58,-0.95,10.41,-0.1,-2.41,0.42,-0.05,0.04,0.08,5532,2019-03-25 16:54:52:558
0.58,-0.95,10.41,-0.1,-2.41,0.42,-0.05,0.04,0.08,5537,2019-03-25 16:54:52:563
0.58,-0.95,10.41,-0.1,-2.41,0.42,-0.05,0.04,0.08,5542,2019-03-25 16:54:52:568
0.58,-0.95,10.41,-0.1,-2.41,0.42,-0.05,0.04,0.08,5547,2019-03-25 16:54:52:573
0.58,-0.95,10.41,-0.1,-2.41,0.42,-0.05,0.04,0.08,5552,2019-03-25 16:54:52:578
0.58,-0.95,10.41,-0.1,-2.41,0.42,-0.05,0.04,0.08,5557,2019-03-25 16:54:52:583
0.58,-0.95,10.41,-0.1,-2.41,0.42,-0.05,0.04,0.08,5562,2019-03-25 16:54:52:588
1.31,-0.53,9.68,0.67,-1.69,-0.3,-0.06,0.06,0.11,5567,2019-03-25 16:54:52:593
1.31,-0.53,9.68,0.67,-1.69,-0.3,-0.06,0.06,0.11,5572,2019-03-25 16:54:52:598
1.31,-0.53,9.68,0.67,-1.69,-0.3,-0.06,0.06,0.11,5577,2019-03-25 16:54:52:603
1.31,-0.53,9.68,0.67,-1.69,-0.3,-0.06,0.06,0.11,5582,2019-03-25 16:54:52:608
0.36,0.39,11.01,-0.23,-0.56,0.97,-0.02,0.05,0.11,5587,2019-03-25 16:54:52:613
0.36,0.39,11.01,-0.23,-0.56,0.97,-0.02,0.05,0.11,5593,2019-03-25 16:54:52:619
0.36,0.39,11.01,-0.23,-0.56,0.97,-0.02,0.05,0.11,5598,2019-03-25 16:54:52:624
0.36,0.39,11.01,-0.23,-0.56,0.97,-0.02,0.05,0.11,5602,2019-03-25 16:54:52:628
0.57,2.87,10.22,-0.23,-0.56,0.97,0.03,0.0,0.04,5608,2019-03-25 16:54:52:634
0.57,2.87,10.22,-0.01,1.92,0.35,0.03,0.0,0.04,5612,2019-03-25 16:54:52:638
0.57,2.87,10.22,-0.01,1.92,0.35,0.03,0.0,0.04,5618,2019-03-25 16:54:52:644
0.57,2.87,10.22,-0.01,1.92,0.35,0.03,0.0,0.04,5622,2019-03-25 16:54:52:648
0.57,2.87,10.22,-0.01,1.92,0.35,0.03,0.0,0.04,5627,2019-03-25 16:54:52:653
0.57,2.87,10.22,-0.01,1.92,0.35,0.03,0.0,0.04,5632,2019-03-25 16:54:52:658
0.57,2.87,10.22,-0.01,1.92,0.35,0.03,0.0,0.04,5637,2019-03-25 16:54:52:663
0.96,3.46,10.39,-0.01,1.92,0.35,0.05,-0.04,0.0,5642,2019-03-25 16:54:52:668
0.96,3.46,10.39,0.35,2.36,0.48,0.05,-0.04,0.0,5648,2019-03-25 16:54:52:674
0.66,1.74,13.48,0.35,2.36,0.48,-0.01,-0.03,-0.02,5652,2019-03-25 16:54:52:678
0.66,1.74,13.48,0.35,2.36,0.48,-0.01,-0.03,-0.02,5657,2019-03-25 16:54:52:683
0.66,1.74,13.48,0.35,2.36,0.48,-0.01,-0.03,-0.02,5662,2019-03-25 16:54:52:688
0.66,1.74,13.48,0.35,2.36,0.48,-0.01,-0.03,-0.02,5667,2019-03-25 16:54:52:693
0.66,1.74,13.48,0.35,2.36,0.48,-0.01,-0.03,-0.02,5672,2019-03-25 16:54:52:698
0.66,1.74,13.48,0.35,2.36,0.48,-0.01,-0.03,-0.02,5677,2019-03-25 16:54:52:703
0.66,1.74,13.48,0.35,2.36,0.48,-0.01,-0.03,-0.02,5682,2019-03-25 16:54:52:708
1.45,1.13,8.93,0.72,0.04,-1.29,0.0,-0.02,-0.01,5687,2019-03-25 16:54:52:713
1.45,1.13,8.93,0.72,0.04,-1.29,0.0,-0.02,-0.01,5693,2019-03-25 16:54:52:719
1.45,1.13,8.93,0.72,0.04,-1.29,0.0,-0.02,-0.01,5697,2019-03-25 16:54:52:723
-0.21,0.86,8.67,0.72,0.04,-1.29,-0.01,-0.02,-0.02,5702,2019-03-25 16:54:52:728
-0.21,0.86,8.67,-1.03,-0.2,-1.29,-0.01,-0.02,-0.02,5707,2019-03-25 16:54:52:733
-0.21,0.86,8.67,-1.03,-0.2,-1.29,-0.03,-0.02,-0.01,5713,2019-03-25 16:54:52:739
-0.21,0.86,8.67,-1.03,-0.2,-1.29,-0.03,-0.02,-0.01,5717,2019-03-25 16:54:52:743
-0.21,0.86,8.67,-1.03,-0.2,-1.29,-0.03,-0.02,-0.01,5725,2019-03-25 16:54:52:751
1.57,-0.47,10.41,0.78,-1.56,0.03,0.01,0.04,-0.01,5728,2019-03-25 16:54:52:754
1.57,-0.47,10.41,0.78,-1.56,0.03,0.01,0.04,-0.01,5733,2019-03-25 16:54:52:759
1.57,-0.47,10.41,0.78,-1.56,0.03,0.01,0.04,-0.01,5737,2019-03-25 16:54:52:763
1.57,-0.47,10.41,0.78,-1.56,0.03,0.01,0.04,-0.01,5744,2019-03-25 16:54:52:770
1.57,-0.47,10.41,0.78,-1.56,0.03,0.01,0.04,-0.01,5747,2019-03-25 16:54:52:773
0.08,-0.88,9.99,-0.68,-1.93,-0.26,0.08,0.03,0.0,5754,2019-03-25 16:54:52:780
0.08,-0.88,9.99,-0.68,-1.93,-0.26,0.08,0.03,0.0,5756,2019-03-25 16:54:52:782
0.08,-0.88,9.99,-0.68,-1.93,-0.26,0.08,0.03,0.0,5762,2019-03-25 16:54:52:788
0.08,-0.88,9.99,-0.68,-1.93,-0.26,0.08,0.03,0.0,5767,2019-03-25 16:54:52:793
0.08,-0.88,9.99,-0.68,-1.93,-0.26,0.08,0.03,0.0,5773,2019-03-25 16:54:52:799
0.08,-0.88,9.99,-0.68,-1.93,-0.26,0.08,0.03,0.0,5777,2019-03-25 16:54:52:803
0.55,-0.04,9.93,-0.24,-1.08,-0.42,-0.03,0.01,0.03,5783,2019-03-25 16:54:52:809
0.55,-0.04,9.93,-0.24,-1.08,-0.42,-0.03,0.01,0.03,5787,2019-03-25 16:54:52:813
0.55,-0.04,9.93,-0.24,-1.08,-0.42,0.0,0.02,0.01,5792,2019-03-25 16:54:52:818
0.55,-0.04,9.93,-0.24,-1.08,-0.42,0.0,0.02,0.01,5797,2019-03-25 16:54:52:823
0.55,-0.04,9.93,-0.24,-1.08,-0.42,0.0,0.02,0.01,5802,2019-03-25 16:54:52:828
0.55,-0.04,9.93,-0.24,-1.08,-0.42,0.0,0.02,0.01,5808,2019-03-25 16:54:52:834
0.55,-0.04,9.93,-0.24,-1.08,-0.42,0.0,0.02,0.01,5812,2019-03-25 16:54:52:838
0.55,-0.04,9.93,-0.24,-1.08,-0.42,0.0,0.02,0.01,5818,2019-03-25 16:54:52:844
-0.1,0.42,7.66,-0.86,-0.25,-2.54,0.0,0.03,0.02,5822,2019-03-25 16:54:52:848
-0.1,0.42,7.66,0.17,-0.42,1.71,-0.02,0.02,0.04,5837,2019-03-25 16:54:52:863
-0.1,0.42,7.66,0.17,-0.42,1.71,-0.02,0.02,0.04,5837,2019-03-25 16:54:52:863
-0.1,0.42,7.66,0.17,-0.42,1.71,-0.02,0.02,0.04,5838,2019-03-25 16:54:52:864
-0.1,0.42,7.66,0.17,-0.42,1.71,-0.02,0.02,0.04,5842,2019-03-25 16:54:52:868
-0.1,0.42,7.66,0.17,-0.42,1.71,-0.02,0.02,0.04,5848,2019-03-25 16:54:52:874
-0.1,0.42,7.66,0.17,-0.42,1.71,-0.02,0.02,0.04,5852,2019-03-25 16:54:52:878
-0.1,0.42,7.66,0.17,-0.42,1.71,-0.02,0.02,0.04,5856,2019-03-25 16:54:52:882
0.89,-0.22,12.84,0.15,-0.26,2.5,0.02,0.02,0.05,5861,2019-03-25 16:54:52:887
0.89,-0.22,12.84,0.15,-0.26,2.5,0.02,0.02,0.05,5869,2019-03-25 16:54:52:895
0.89,-0.22,12.84,-0.3,-0.01,-0.53,0.1,0.01,0.05,5873,2019-03-25 16:54:52:899
0.89,-0.22,12.84,-0.3,-0.01,-0.53,0.1,0.01,0.05,5877,2019-03-25 16:54:52:903
0.89,-0.22,12.84,-0.3,-0.01,-0.53,0.1,0.01,0.05,5882,2019-03-25 16:54:52:908
0.89,-0.22,12.84,-0.3,-0.01,-0.53,0.1,0.01,0.05,5887,2019-03-25 16:54:52:913
0.34,0.33,10.52,-0.28,0.51,0.29,0.05,-0.02,0.05,5893,2019-03-25 16:54:52:919
0.34,0.33,10.52,-0.28,0.51,0.29,0.05,-0.02,0.05,5897,2019-03-25 16:54:52:923
0.34,0.33,10.52,-0.28,0.51,0.29,0.05,-0.02,0.05,5901,2019-03-25 16:54:52:927
0.34,0.33,10.52,-0.28,0.51,0.29,0.05,-0.02,0.05,5907,2019-03-25 16:54:52:933
0.34,0.33,10.52,-0.28,0.51,0.29,0.05,-0.02,0.05,5912,2019-03-25 16:54:52:938
0.34,0.33,10.52,-0.28,0.51,0.29,0.05,-0.02,0.05,5917,2019-03-25 16:54:52:943
0.82,-0.94,9.42,0.17,-0.64,-0.39,0.01,0.0,0.05,5924,2019-03-25 16:54:52:950
0.82,-0.94,9.42,0.17,-0.64,-0.39,0.01,0.0,0.05,5927,2019-03-25 16:54:52:953
1.51,-1.42,10.05,0.55,-0.09,0.24,-0.04,0.01,0.06,5932,2019-03-25 16:54:52:958
1.51,-1.42,10.05,0.55,-0.09,0.24,-0.04,0.01,0.06,5937,2019-03-25 16:54:52:963
1.51,-1.42,10.05,0.55,-0.09,0.24,-0.04,0.01,0.06,5942,2019-03-25 16:54:52:968
1.51,-1.42,10.05,0.55,-0.09,0.24,-0.04,0.01,0.06,5947,2019-03-25 16:54:52:973
0.37,-0.97,9.82,-0.31,-0.7,-0.09,0.02,0.0,0.07,5952,2019-03-25 16:54:52:978
0.37,-0.97,9.82,-0.31,-0.7,-0.09,0.02,0.0,0.07,5957,2019-03-25 16:54:52:983
0.37,-0.97,9.82,-0.31,-0.7,-0.09,0.02,0.0,0.07,5962,2019-03-25 16:54:52:988
0.37,-0.97,9.82,-0.31,-0.7,-0.09,0.02,0.0,0.07,5967,2019-03-25 16:54:52:993
0.37,-0.97,9.82,-0.31,-0.7,-0.09,0.02,0.0,0.07,5972,2019-03-25 16:54:52:998
0.37,-0.97,9.82,-0.31,-0.7,-0.09,0.02,0.0,0.07,5977,2019-03-25 16:54:53:003
1.29,1.39,9.87,0.58,1.59,0.04,0.01,0.0,0.09,5982,2019-03-25 16:54:53:008
1.29,1.39,9.87,0.58,1.59,0.04,0.01,0.0,0.09,5988,2019-03-25 16:54:53:014
1.29,1.39,9.87,0.58,1.59,0.04,0.01,0.0,0.09,5992,2019-03-25 16:54:53:018
1.29,1.39,9.87,0.58,1.59,0.04,0.01,0.0,0.09,5997,2019-03-25 16:54:53:023
1.57,1.32,8.09,0.75,1.38,-1.54,0.02,0.0,0.05,6002,2019-03-25 16:54:53:028
1.57,1.32,8.09,0.75,1.38,-1.54,0.02,0.0,0.05,6007,2019-03-25 16:54:53:033
1.57,1.32,8.09,0.75,1.38,-1.54,0.02,0.0,0.05,6012,2019-03-25 16:54:53:038
1.53,1.52,12.07,0.6,1.47,2.08,-0.06,-0.02,-0.04,6023,2019-03-25 16:54:53:049
1.53,1.52,12.07,0.6,1.47,2.08,-0.06,-0.02,-0.04,6024,2019-03-25 16:54:53:050
1.53,1.52,12.07,0.6,1.47,2.08,-0.06,-0.02,-0.04,6027,2019-03-25 16:54:53:053
1.53,1.52,12.07,0.6,1.47,2.08,-0.06,-0.02,-0.04,6033,2019-03-25 16:54:53:059
2.21,1.23,9.31,1.13,1.03,-0.72,-0.03,-0.03,-0.14,6037,2019-03-25 16:54:53:063
2.21,1.23,9.31,1.13,1.03,-0.72,-0.03,-0.03,-0.14,6042,2019-03-25 16:54:53:068
2.21,1.23,9.31,1.13,1.03,-0.72,-0.03,-0.03,-0.14,6047,2019-03-25 16:54:53:073
2.21,1.23,9.31,1.13,1.03,-0.72,-0.03,-0.03,-0.14,6052,2019-03-25 16:54:53:078
-1.22,0.6,7.94,-2.18,0.31,-1.75,-0.04,-0.03,-0.22,6057,2019-03-25 16:54:53:083
-1.22,0.6,7.94,-2.18,0.31,-1.75,-0.04,-0.03,-0.22,6062,2019-03-25 16:54:53:088
-1.22,0.6,7.94,-2.18,0.31,-1.75,-0.04,-0.03,-0.22,6067,2019-03-25 16:54:53:093
-1.22,0.6,7.94,-2.18,0.31,-1.75,-0.04,-0.03,-0.22,6072,2019-03-25 16:54:53:098
0.0,-0.02,9.32,-0.97,-0.38,-0.45,-0.02,-0.02,-0.2,6077,2019-03-25 16:54:53:103
0.0,-0.02,9.32,-0.97,-0.38,-0.45,-0.02,-0.02,-0.2,6083,2019-03-25 16:54:53:109
0.0,-0.02,9.32,-0.97,-0.38,-0.45,-0.02,-0.02,-0.2,6086,2019-03-25 16:54:53:112
2.13,1.05,8.8,1.05,0.64,-0.74,-0.04,-0.05,-0.13,6092,2019-03-25 16:54:53:118
2.13,1.05,8.8,1.05,0.64,-0.74,-0.04,-0.05,-0.13,6097,2019-03-25 16:54:53:123
2.13,1.05,8.8,1.05,0.64,-0.74,-0.04,-0.05,-0.13,6102,2019-03-25 16:54:53:128
2.13,1.05,8.8,1.05,0.64,-0.74,-0.04,-0.05,-0.13,6108,2019-03-25 16:54:53:134
2.13,1.05,8.8,1.05,0.64,-0.74,-0.04,-0.05,-0.13,6112,2019-03-25 16:54:53:138
2.13,1.05,8.8,1.05,0.64,-0.74,-0.04,-0.05,-0.13,6117,2019-03-25 16:54:53:143
-0.5,-0.47,11.74,-1.61,-0.96,2.11,-0.1,-0.02,-0.09,6122,2019-03-25 16:54:53:148
-0.5,-0.47,11.74,-1.61,-0.96,2.11,-0.1,-0.02,-0.09,6129,2019-03-25 16:54:53:155
1.71,0.74,11.99,0.58,0.2,2.31,0.01,-0.04,-0.15,6133,2019-03-25 16:54:53:159
1.71,0.74,11.99,0.58,0.2,2.31,0.01,-0.04,-0.15,6137,2019-03-25 16:54:53:163
1.71,0.74,11.99,0.58,0.2,2.31,0.01,-0.04,-0.15,6142,2019-03-25 16:54:53:168
1.71,0.74,11.99,0.58,0.2,2.31,0.01,-0.04,-0.15,6147,2019-03-25 16:54:53:173
1.71,0.74,11.99,0.58,0.2,2.31,0.01,-0.04,-0.15,6152,2019-03-25 16:54:53:178
0.83,0.59,10.05,-0.3,-0.07,0.44,0.04,0.03,-0.11,6157,2019-03-25 16:54:53:183
0.83,0.59,10.05,-0.3,-0.07,0.44,0.04,0.03,-0.11,6162,2019-03-25 16:54:53:188
0.83,0.59,10.05,-0.3,-0.07,0.44,0.04,0.03,-0.11,6167,2019-03-25 16:54:53:193
0.83,0.59,10.05,-0.3,-0.07,0.44,0.04,0.03,-0.11,6172,2019-03-25 16:54:53:198
0.83,0.59,10.05,-0.3,-0.07,0.44,0.04,0.03,-0.11,6177,2019-03-25 16:54:53:203
1.52,1.15,10.69,0.39,0.39,1.03,-0.04,0.0,-0.03,6182,2019-03-25 16:54:53:208
1.52,1.15,10.69,0.39,0.39,1.03,-0.04,0.0,-0.03,6188,2019-03-25 16:54:53:214
1.52,1.15,10.69,0.39,0.39,1.03,-0.04,0.0,-0.03,6192,2019-03-25 16:54:53:218
1.31,2.55,9.23,0.29,1.74,-0.55,-0.03,0.14,-0.03,6197,2019-03-25 16:54:53:223
1.31,2.55,9.23,0.29,1.74,-0.55,-0.03,0.14,-0.03,6202,2019-03-25 16:54:53:228
1.31,2.55,9.23,0.29,1.74,-0.55,-0.03,0.14,-0.03,6207,2019-03-25 16:54:53:233
1.31,2.55,9.23,0.29,1.74,-0.55,-0.03,0.14,-0.03,6212,2019-03-25 16:54:53:238
-0.37,2.49,9.4,-1.3,1.62,-0.25,-0.05,-0.01,-0.07,6217,2019-03-25 16:54:53:243
-0.37,2.49,9.4,-1.3,1.62,-0.25,-0.05,-0.01,-0.07,6223,2019-03-25 16:54:53:249
-0.37,2.49,9.4,-1.3,1.62,-0.25,-0.05,-0.01,-0.07,6227,2019-03-25 16:54:53:253
2.23,1.88,12.17,1.38,0.94,2.47,-0.08,0.08,-0.04,6232,2019-03-25 16:54:53:258
2.23,1.88,12.17,1.38,0.94,2.47,-0.08,0.08,-0.04,6237,2019-03-25 16:54:53:263
2.23,1.88,12.17,1.38,0.94,2.47,-0.08,0.08,-0.04,6243,2019-03-25 16:54:53:269
2.23,1.88,12.17,1.38,0.94,2.47,-0.08,0.08,-0.04,6247,2019-03-25 16:54:53:273
0.85,1.15,11.83,0.01,0.12,1.99,-0.09,0.15,-0.04,6252,2019-03-25 16:54:53:278
0.85,1.15,11.83,0.01,0.12,1.99,-0.09,0.15,-0.04,6257,2019-03-25 16:54:53:283
0.85,1.15,11.83,0.01,0.12,1.99,-0.09,0.15,-0.04,6262,2019-03-25 16:54:53:288
0.85,1.15,11.83,0.01,0.12,1.99,-0.09,0.15,-0.04,6267,2019-03-25 16:54:53:293
1.19,-0.03,8.48,0.32,-1.14,-1.3,0.08,0.0,-0.11,6275,2019-03-25 16:54:53:301
1.19,-0.03,8.48,0.32,-1.14,-1.3,0.08,0.0,-0.11,6277,2019-03-25 16:54:53:303
1.19,-0.03,8.48,0.32,-1.14,-1.3,0.08,0.0,-0.11,6282,2019-03-25 16:54:53:308
1.19,-0.03,8.48,0.32,-1.14,-1.3,0.08,0.0,-0.11,6288,2019-03-25 16:54:53:314
0.75,2.08,12.49,0.02,0.86,2.43,-0.03,0.08,-0.04,6292,2019-03-25 16:54:53:318
0.75,2.08,12.49,0.02,0.86,2.43,-0.03,0.08,-0.04,6297,2019-03-25 16:54:53:323
0.75,2.08,12.49,0.02,0.86,2.43,-0.03,0.08,-0.04,6304,2019-03-25 16:54:53:330
0.75,2.08,12.49,0.02,0.86,2.43,-0.03,0.08,-0.04,6307,2019-03-25 16:54:53:333
2.22,0.28,8.6,1.34,-0.95,-1.49,-0.05,0.0,-0.06,6315,2019-03-25 16:54:53:341
2.22,0.28,8.6,1.34,-0.95,-1.49,-0.05,0.0,-0.06,6317,2019-03-25 16:54:53:343
2.22,0.28,8.6,1.34,-0.95,-1.49,-0.05,0.0,-0.06,6322,2019-03-25 16:54:53:348
2.35,1.45,9.79,1.48,0.1,-0.12,-0.04,0.05,-0.06,6327,2019-03-25 16:54:53:353
2.35,1.45,9.79,1.48,0.1,-0.12,-0.04,0.05,-0.06,6331,2019-03-25 16:54:53:357
2.35,1.45,9.79,1.48,0.1,-0.12,-0.04,0.05,-0.06,6337,2019-03-25 16:54:53:363
2.35,1.45,9.79,1.48,0.1,-0.12,-0.04,0.05,-0.06,6342,2019-03-25 16:54:53:368
2.35,1.45,9.79,1.48,0.1,-0.12,-0.04,0.05,-0.06,6348,2019-03-25 16:54:53:374
0.51,0.72,8.44,-0.29,-0.74,-1.42,-0.03,0.09,-0.05,6352,2019-03-25 16:54:53:378
0.51,0.72,8.44,-0.29,-0.74,-1.42,-0.03,0.09,-0.05,6357,2019-03-25 16:54:53:383
0.51,0.72,8.44,-0.29,-0.74,-1.42,-0.03,0.09,-0.05,6363,2019-03-25 16:54:53:389
0.51,0.72,8.44,-0.29,-0.74,-1.42,-0.03,0.09,-0.05,6367,2019-03-25 16:54:53:393
0.74,0.19,10.45,-0.06,-1.13,0.56,-0.06,-0.05,-0.09,6374,2019-03-25 16:54:53:400
0.74,0.19,10.45,-0.06,-1.13,0.56,-0.06,-0.05,-0.09,6377,2019-03-25 16:54:53:403
0.74,0.19,10.45,-0.06,-1.13,0.56,-0.06,-0.05,-0.09,6382,2019-03-25 16:54:53:408
0.74,0.19,10.45,-0.06,-1.13,0.56,-0.06,-0.05,-0.09,6387,2019-03-25 16:54:53:413
-1.57,-0.96,6.84,-2.25,-1.99,-3.08,0.0,-0.07,-0.07,6392,2019-03-25 16:54:53:418
-1.57,-0.96,6.84,-2.25,-1.99,-3.08,0.0,-0.07,-0.07,6397,2019-03-25 16:54:53:423
-1.57,-0.96,6.84,-2.25,-1.99,-3.08,0.0,-0.07,-0.07,6407,2019-03-25 16:54:53:433
-1.57,-0.96,6.84,-2.25,-1.99,-3.08,0.0,-0.07,-0.07,6408,2019-03-25 16:54:53:434
-1.2,-0.65,8.6,-1.84,-1.41,-1.24,0.01,-0.16,-0.06,6414,2019-03-25 16:54:53:440
-1.2,-0.65,8.6,-1.84,-1.41,-1.24,0.01,-0.16,-0.06,6417,2019-03-25 16:54:53:443
-1.2,-0.65,8.6,-1.84,-1.41,-1.24,0.01,-0.16,-0.06,6422,2019-03-25 16:54:53:448
-1.2,-0.65,8.6,-1.84,-1.41,-1.24,0.01,-0.16,-0.06,6427,2019-03-25 16:54:53:453
0.39,0.19,8.5,-0.16,-0.35,-1.27,-0.01,-0.14,0.02,6432,2019-03-25 16:54:53:458
0.39,0.19,8.5,-0.16,-0.35,-1.27,-0.01,-0.14,0.02,6437,2019-03-25 16:54:53:463
0.39,0.19,8.5,-0.16,-0.35,-1.27,-0.01,-0.14,0.02,6442,2019-03-25 16:54:53:468
0.39,0.19,8.5,-0.16,-0.35,-1.27,-0.01,-0.14,0.02,6447,2019-03-25 16:54:53:473
1.27,1.99,14.25,0.54,1.47,4.5,-0.01,-0.06,0.06,6452,2019-03-25 16:54:53:478
1.27,1.99,14.25,0.54,1.47,4.5,-0.01,-0.06,0.06,6457,2019-03-25 16:54:53:483
1.27,1.99,14.25,0.54,1.47,4.5,-0.01,-0.06,0.06,6462,2019-03-25 16:54:53:488
1.27,1.99,14.25,0.54,1.47,4.5,-0.01,-0.06,0.06,6468,2019-03-25 16:54:53:494
0.67,0.92,10.45,0.0,0.37,0.59,0.01,0.03,0.11,6472,2019-03-25 16:54:53:498
0.67,0.92,10.45,0.0,0.37,0.59,0.01,0.03,0.11,6477,2019-03-25 16:54:53:503
0.67,0.92,10.45,0.0,0.37,0.59,0.01,0.03,0.11,6482,2019-03-25 16:54:53:508
0.67,0.92,10.45,0.0,0.37,0.59,0.01,0.03,0.11,6487,2019-03-25 16:54:53:513
-0.71,2.49,10.39,-1.33,1.92,0.56,0.07,0.01,0.14,6492,2019-03-25 16:54:53:518
-0.71,2.49,10.39,-1.33,1.92,0.56,0.07,0.01,0.14,6497,2019-03-25 16:54:53:523
-0.71,2.49,10.39,-1.33,1.92,0.56,0.07,0.01,0.14,6502,2019-03-25 16:54:53:528
-0.71,2.49,10.39,-1.33,1.92,0.56,0.07,0.01,0.14,6507,2019-03-25 16:54:53:533
-0.71,2.49,10.39,-1.33,1.92,0.56,0.07,0.01,0.14,6512,2019-03-25 16:54:53:538
-0.71,2.49,10.39,-1.33,1.92,0.56,0.07,0.01,0.14,6517,2019-03-25 16:54:53:543
-0.71,2.49,10.39,-1.33,1.92,0.56,0.07,0.01,0.14,6523,2019-03-25 16:54:53:549
0.56,2.03,8.8,0.0,1.24,-0.8,0.16,-0.12,0.05,6527,2019-03-25 16:54:53:553
0.56,2.03,8.8,0.0,1.24,-0.8,0.16,-0.12,0.05,6532,2019-03-25 16:54:53:558
0.56,2.03,8.8,0.0,1.24,-0.8,0.16,-0.12,0.05,6537,2019-03-25 16:54:53:563
0.56,2.03,8.8,0.0,1.24,-0.8,0.16,-0.12,0.05,6542,2019-03-25 16:54:53:568
0.56,2.03,8.8,0.0,1.24,-0.8,0.16,-0.12,0.05,6547,2019-03-25 16:54:53:573
1.64,1.51,11.25,1.04,0.49,1.45,0.01,-0.01,0.0,6551,2019-03-25 16:54:53:577
1.64,1.51,11.25,1.04,0.49,1.45,0.01,-0.01,0.0,6557,2019-03-25 16:54:53:583
1.64,1.51,11.25,1.04,0.49,1.45,0.01,-0.01,0.0,6562,2019-03-25 16:54:53:588
1.64,1.51,11.25,1.04,0.49,1.45,0.01,-0.01,0.0,6567,2019-03-25 16:54:53:593
1.64,1.51,11.25,1.04,0.49,1.45,0.01,-0.01,0.0,6572,2019-03-25 16:54:53:598
1.64,1.51,11.25,1.04,0.49,1.45,0.01,-0.01,0.0,6577,2019-03-25 16:54:53:603
1.64,1.51,11.25,1.04,0.49,1.45,0.01,-0.01,0.0,6583,2019-03-25 16:54:53:609
2.74,0.1,10.85,2.02,-0.98,1.13,-0.02,0.0,-0.05,6586,2019-03-25 16:54:53:612
2.74,0.1,10.85,2.02,-0.98,1.13,-0.02,0.0,-0.05,6593,2019-03-25 16:54:53:619
2.74,0.1,10.85,2.02,-0.98,1.13,-0.02,0.0,-0.05,6598,2019-03-25 16:54:53:624
2.74,0.1,10.85,2.02,-0.98,1.13,-0.02,0.0,-0.05,6602,2019-03-25 16:54:53:628
1.15,0.61,10.14,0.22,-0.62,0.43,-0.03,0.01,-0.06,6607,2019-03-25 16:54:53:633
1.15,0.61,10.14,0.22,-0.62,0.43,-0.03,0.01,-0.06,6612,2019-03-25 16:54:53:638
1.15,0.61,10.14,0.22,-0.62,0.43,-0.03,0.01,-0.06,6617,2019-03-25 16:54:53:643
1.15,0.61,10.14,0.22,-0.62,0.43,-0.03,0.01,-0.06,6622,2019-03-25 16:54:53:648
1.15,0.61,10.14,0.22,-0.62,0.43,-0.03,0.01,-0.06,6627,2019-03-25 16:54:53:653
0.49,0.79,12.72,-0.46,-0.6,2.88,0.1,-0.02,-0.1,6633,2019-03-25 16:54:53:659
0.49,0.79,12.72,-0.46,-0.6,2.88,0.1,-0.02,-0.1,6637,2019-03-25 16:54:53:663
0.49,0.79,12.72,-0.46,-0.6,2.88,0.1,-0.02,-0.1,6642,2019-03-25 16:54:53:668
0.49,0.79,12.72,-0.46,-0.6,2.88,0.1,-0.02,-0.1,6647,2019-03-25 16:54:53:673
0.49,0.79,12.72,-0.46,-0.6,2.88,0.1,-0.02,-0.1,6651,2019-03-25 16:54:53:677
0.49,0.79,12.72,-0.46,-0.6,2.88,0.1,-0.02,-0.1,6658,2019-03-25 16:54:53:684
0.49,0.79,12.72,-0.46,-0.6,2.88,0.1,-0.02,-0.1,6662,2019-03-25 16:54:53:688
1.37,-0.24,8.65,0.39,-1.57,-1.18,0.01,0.01,-0.09,6668,2019-03-25 16:54:53:694
1.37,-0.24,8.65,0.39,-1.57,-1.18,0.01,0.01,-0.09,6672,2019-03-25 16:54:53:698
1.37,-0.24,8.65,0.39,-1.57,-1.18,0.01,0.01,-0.09,6677,2019-03-25 16:54:53:703
1.37,-0.24,8.65,0.39,-1.57,-1.18,0.01,0.01,-0.09,6682,2019-03-25 16:54:53:708
0.17,-0.97,8.35,-0.84,-2.15,-1.25,0.0,0.0,-0.07,6687,2019-03-25 16:54:53:713
0.17,-0.97,8.35,-0.84,-2.15,-1.25,0.0,0.0,-0.07,6692,2019-03-25 16:54:53:718
0.17,-0.97,8.35,-0.84,-2.15,-1.25,0.0,0.0,-0.07,6697,2019-03-25 16:54:53:723
0.17,-0.97,8.35,-0.84,-2.15,-1.25,0.0,0.0,-0.07,6702,2019-03-25 16:54:53:728
1.65,-0.63,10.47,0.47,-1.54,0.9,-0.03,0.01,-0.04,6707,2019-03-25 16:54:53:733
1.65,-0.63,10.47,0.47,-1.54,0.9,-0.03,0.01,-0.04,6713,2019-03-25 16:54:53:739
1.65,-0.63,10.47,0.47,-1.54,0.9,-0.03,0.01,-0.04,6717,2019-03-25 16:54:53:743
1.65,-0.63,10.47,0.47,-1.54,0.9,-0.03,0.01,-0.04,6722,2019-03-25 16:54:53:748
1.65,-0.63,10.47,0.47,-1.54,0.9,-0.03,0.01,-0.04,6727,2019-03-25 16:54:53:753
1.65,-0.63,10.47,0.47,-1.54,0.9,-0.03,0.01,-0.04,6732,2019-03-25 16:54:53:758
1.65,-0.63,10.47,0.47,-1.54,0.9,-0.03,0.01,-0.04,6737,2019-03-25 16:54:53:763
1.1,-2.03,9.59,0.1,-2.14,-0.04,0.08,0.02,0.0,6742,2019-03-25 16:54:53:768
1.1,-2.03,9.59,0.1,-2.14,-0.04,0.08,0.02,0.0,6747,2019-03-25 16:54:53:773
1.1,-2.03,9.59,0.1,-2.14,-0.04,0.08,0.02,0.0,6752,2019-03-25 16:54:53:778
1.1,-2.03,9.59,0.1,-2.14,-0.04,0.08,0.02,0.0,6757,2019-03-25 16:54:53:783
0.71,-0.98,10.56,-0.16,-0.81,0.7,-0.03,0.01,0.11,6762,2019-03-25 16:54:53:788
0.71,-0.98,10.56,-0.16,-0.81,0.7,-0.03,0.01,0.11,6767,2019-03-25 16:54:53:793
0.71,-0.98,10.56,-0.16,-0.81,0.7,-0.03,0.01,0.11,6772,2019-03-25 16:54:53:798
0.71,-0.98,10.56,-0.16,-0.81,0.7,-0.03,0.01,0.11,6777,2019-03-25 16:54:53:803
0.71,-0.98,10.56,-0.16,-0.81,0.7,-0.03,0.01,0.11,6782,2019-03-25 16:54:53:808
-0.23,-0.11,8.75,-0.9,0.27,-0.95,0.02,0.01,0.13,6787,2019-03-25 16:54:53:813
-0.23,-0.11,8.75,-0.9,0.27,-0.95,0.02,0.01,0.13,6792,2019-03-25 16:54:53:818
-0.23,-0.11,8.75,-0.9,0.27,-0.95,0.02,0.01,0.13,6797,2019-03-25 16:54:53:823
-0.23,-0.11,8.75,-0.9,0.27,-0.95,0.02,0.01,0.13,6802,2019-03-25 16:54:53:828
-0.23,-0.11,8.75,-0.9,0.27,-0.95,0.02,0.01,0.13,6807,2019-03-25 16:54:53:833
-0.23,-0.11,8.75,-0.9,0.27,-0.95,0.02,0.01,0.13,6812,2019-03-25 16:54:53:838
-0.23,-0.11,8.75,-0.9,0.27,-0.95,0.02,0.01,0.13,6818,2019-03-25 16:54:53:844
1.38,1.34,11.21,0.84,1.83,1.24,0.02,0.01,0.15,6822,2019-03-25 16:54:53:848
1.38,1.34,11.21,0.84,1.83,1.24,0.02,0.01,0.15,6826,2019-03-25 16:54:53:852
0.96,0.37,9.68,0.84,1.83,1.24,0.06,0.02,0.12,6832,2019-03-25 16:54:53:858
0.96,0.37,9.68,0.84,1.83,1.24,0.06,0.02,0.12,6837,2019-03-25 16:54:53:863
0.96,0.37,9.68,0.84,1.83,1.24,0.06,0.02,0.12,6842,2019-03-25 16:54:53:868
0.96,0.37,9.68,0.84,1.83,1.24,0.06,0.02,0.12,6847,2019-03-25 16:54:53:873
0.71,1.01,10.11,0.23,1.4,0.76,0.03,0.0,0.08,6852,2019-03-25 16:54:53:878
0.71,1.01,10.11,0.23,1.4,0.76,0.03,0.0,0.08,6857,2019-03-25 16:54:53:883
0.71,1.01,10.11,0.23,1.4,0.76,0.03,0.0,0.08,6862,2019-03-25 16:54:53:888
0.71,1.01,10.11,0.23,1.4,0.76,0.03,0.0,0.08,6867,2019-03-25 16:54:53:893
0.71,1.01,10.11,0.23,1.4,0.76,0.03,0.0,0.08,6872,2019-03-25 16:54:53:898
0.71,1.01,10.11,0.23,1.4,0.76,0.03,0.0,0.08,6877,2019-03-25 16:54:53:903
2.97,3.09,8.72,0.95,1.64,0.55,-0.03,0.02,0.08,6882,2019-03-25 16:54:53:908
2.97,3.09,8.72,0.95,1.64,0.55,-0.03,0.02,0.08,6887,2019-03-25 16:54:53:913
2.97,3.09,8.72,0.95,1.64,0.55,-0.03,0.02,0.08,6892,2019-03-25 16:54:53:918
2.97,3.09,8.72,0.95,1.64,0.55,-0.03,0.02,0.08,6897,2019-03-25 16:54:53:923
0.37,0.55,12.07,-0.5,1.64,1.53,0.03,0.0,-0.08,6902,2019-03-25 16:54:53:928
0.37,0.55,12.07,-0.5,1.64,1.53,0.03,0.0,-0.08,6907,2019-03-25 16:54:53:933
1.52,-0.89,9.99,0.89,-1.43,0.32,-0.02,0.01,-0.12,6912,2019-03-25 16:54:53:938
1.52,-0.89,9.99,0.89,-1.43,0.32,-0.02,0.01,-0.12,6918,2019-03-25 16:54:53:944
1.52,-0.89,9.99,0.89,-1.43,0.32,-0.02,0.01,-0.12,6923,2019-03-25 16:54:53:949
1.52,-0.89,9.99,0.89,-1.43,0.32,-0.02,0.01,-0.12,6927,2019-03-25 16:54:53:953
1.52,-0.89,9.99,0.89,-1.43,0.32,-0.02,0.01,-0.12,6932,2019-03-25 16:54:53:958
1.52,-0.89,9.99,0.89,-1.43,0.32,-0.02,0.01,-0.12,6937,2019-03-25 16:54:53:963
1.88,-0.77,9.12,1.17,-1.31,-0.32,-0.05,0.03,-0.12,6942,2019-03-25 16:54:53:968
1.88,-0.77,9.12,1.17,-1.31,-0.32,-0.05,0.03,-0.12,6947,2019-03-25 16:54:53:973
1.88,-0.77,9.12,1.17,-1.31,-0.32,-0.05,0.03,-0.12,6952,2019-03-25 16:54:53:978
1.88,-0.77,9.12,1.17,-1.31,-0.32,-0.05,0.03,-0.12,6957,2019-03-25 16:54:53:983
1.23,0.59,9.48,0.46,-0.19,-0.04,0.01,-0.02,-0.14,6962,2019-03-25 16:54:53:988
1.23,0.59,9.48,0.46,-0.19,-0.04,0.01,-0.02,-0.14,6968,2019-03-25 16:54:53:994
1.23,0.59,9.48,0.46,-0.19,-0.04,0.01,-0.02,-0.14,6972,2019-03-25 16:54:53:998
1.23,0.59,9.48,0.46,-0.19,-0.04,0.01,-0.02,-0.14,6978,2019-03-25 16:54:54:004
1.79,1.96,10.1,0.81,0.95,0.48,-0.04,-0.01,-0.17,6983,2019-03-25 16:54:54:009
1.79,1.96,10.1,0.81,0.95,0.48,-0.04,-0.01,-0.17,6987,2019-03-25 16:54:54:013
1.79,1.96,10.1,0.81,0.95,0.48,-0.04,-0.01,-0.17,6992,2019-03-25 16:54:54:018
1.79,1.96,10.1,0.81,0.95,0.48,-0.04,-0.01,-0.17,6997,2019-03-25 16:54:54:023
2.23,2.48,10.27,1.1,1.25,0.57,-0.01,-0.01,-0.23,7005,2019-03-25 16:54:54:031
2.23,2.48,10.27,1.1,1.25,0.57,-0.01,-0.01,-0.23,7007,2019-03-25 16:54:54:033
1.42,2.03,14.2,0.2,0.57,4.14,-0.06,-0.02,-0.32,7013,2019-03-25 16:54:54:039
1.42,2.03,14.2,0.2,0.57,4.14,-0.06,-0.02,-0.32,7017,2019-03-25 16:54:54:043
1.42,2.03,14.2,0.2,0.57,4.14,-0.06,-0.02,-0.32,7022,2019-03-25 16:54:54:048
1.42,2.03,14.2,0.2,0.57,4.14,-0.06,-0.02,-0.32,7028,2019-03-25 16:54:54:054
1.55,1.27,9.16,0.28,-0.21,-1.02,-0.11,0.0,-0.35,7033,2019-03-25 16:54:54:059
1.55,1.27,9.16,0.28,-0.21,-1.02,-0.11,0.0,-0.35,7037,2019-03-25 16:54:54:063
1.55,1.27,9.16,0.28,-0.21,-1.02,-0.11,0.0,-0.35,7042,2019-03-25 16:54:54:068
1.55,1.27,9.16,0.28,-0.21,-1.02,-0.11,0.0,-0.35,7049,2019-03-25 16:54:54:075
-0.43,-0.5,10.79,-1.62,-1.78,0.52,-0.07,-0.03,-0.35,7052,2019-03-25 16:54:54:078
-0.43,-0.5,10.79,-1.62,-1.78,0.52,-0.07,-0.03,-0.35,7057,2019-03-25 16:54:54:083
-0.43,-0.5,10.79,-1.62,-1.78,0.52,-0.07,-0.03,-0.35,7062,2019-03-25 16:54:54:088
-0.43,-0.5,10.79,-1.62,-1.78,0.52,-0.07,-0.03,-0.35,7068,2019-03-25 16:54:54:094
1.05,-0.84,8.83,0.0,-1.83,-1.4,0.09,-0.09,-0.34,7072,2019-03-25 16:54:54:098
1.05,-0.84,8.83,0.0,-1.83,-1.4,0.09,-0.09,-0.34,7077,2019-03-25 16:54:54:103
1.05,-0.84,8.83,0.0,-1.83,-1.4,0.09,-0.09,-0.34,7082,2019-03-25 16:54:54:108
1.05,-0.84,8.83,0.0,-1.83,-1.4,0.09,-0.09,-0.34,7087,2019-03-25 16:54:54:113
1.05,-0.84,8.83,0.0,-1.83,-1.4,0.09,-0.09,-0.34,7092,2019-03-25 16:54:54:118
1.05,-0.84,8.83,0.0,-1.83,-1.4,0.09,-0.09,-0.34,7097,2019-03-25 16:54:54:123
0.07,-0.3,12.27,-0.99,-1.09,2.0,-0.03,-0.06,-0.22,7102,2019-03-25 16:54:54:128
0.07,-0.3,12.27,-0.99,-1.09,2.0,-0.03,-0.06,-0.22,7110,2019-03-25 16:54:54:136
1.11,-1.53,9.03,0.02,-2.13,-1.37,-0.03,-0.05,-0.17,7112,2019-03-25 16:54:54:138
1.11,-1.53,9.03,0.02,-2.13,-1.37,-0.03,-0.05,-0.17,7117,2019-03-25 16:54:54:143
1.11,-1.53,9.03,0.02,-2.13,-1.37,-0.03,-0.05,-0.17,7125,2019-03-25 16:54:54:151
1.11,-1.53,9.03,0.02,-2.13,-1.37,-0.03,-0.05,-0.17,7131,2019-03-25 16:54:54:157
1.11,-1.53,9.03,0.02,-2.13,-1.37,-0.03,-0.05,-0.17,7131,2019-03-25 16:54:54:157
1.11,-1.53,9.03,0.02,-2.13,-1.37,-0.03,-0.05,-0.17,7137,2019-03-25 16:54:54:163
-1.03,-3.06,9.2,-1.93,-3.45,-1.09,-0.07,-0.03,0.05,7142,2019-03-25 16:54:54:168
-1.03,-3.06,9.2,-1.93,-3.45,-1.09,-0.07,-0.03,0.05,7149,2019-03-25 16:54:54:175
-1.03,-3.06,9.2,-1.93,-3.45,-1.09,-0.07,-0.03,0.05,7156,2019-03-25 16:54:54:182
-1.03,-3.06,9.2,-1.93,-3.45,-1.09,-0.07,-0.03,0.05,7156,2019-03-25 16:54:54:182
0.68,-3.01,9.05,-0.13,-3.06,-1.1,0.0,0.04,0.21,7162,2019-03-25 16:54:54:188
0.68,-3.01,9.05,-0.13,-3.06,-1.1,0.0,0.04,0.21,7167,2019-03-25 16:54:54:193
0.68,-3.01,9.05,-0.13,-3.06,-1.1,0.0,0.04,0.21,7172,2019-03-25 16:54:54:198
0.68,-3.01,9.05,-0.13,-3.06,-1.1,0.0,0.04,0.21,7177,2019-03-25 16:54:54:203
0.04,0.05,10.92,-0.62,0.26,0.65,0.08,0.02,0.39,7182,2019-03-25 16:54:54:208
0.04,0.05,10.92,-0.62,0.26,0.65,0.08,0.02,0.39,7189,2019-03-25 16:54:54:215
0.04,0.05,10.92,-0.62,0.26,0.65,0.08,0.02,0.39,7192,2019-03-25 16:54:54:218
0.0,1.07,8.19,-0.42,1.44,-1.79,0.13,0.05,0.42,7197,2019-03-25 16:54:54:223
0.0,1.07,8.19,-0.42,1.44,-1.79,0.13,0.05,0.42,7202,2019-03-25 16:54:54:228
0.0,1.07,8.19,-0.42,1.44,-1.79,0.13,0.05,0.42,7207,2019-03-25 16:54:54:233
0.0,1.07,8.19,-0.42,1.44,-1.79,0.13,0.05,0.42,7214,2019-03-25 16:54:54:240
2.24,4.39,10.68,1.83,4.65,0.56,0.01,0.09,0.43,7217,2019-03-25 16:54:54:243
2.24,4.39,10.68,1.83,4.65,0.56,0.01,0.09,0.43,7223,2019-03-25 16:54:54:249
2.24,4.39,10.68,1.83,4.65,0.56,0.01,0.09,0.43,7227,2019-03-25 16:54:54:253
2.24,4.39,10.68,1.83,4.65,0.56,0.01,0.09,0.43,7231,2019-03-25 16:54:54:257
2.24,4.39,10.68,1.83,4.65,0.56,0.01,0.09,0.43,7237,2019-03-25 16:54:54:263
2.64,5.35,9.69,2.16,5.26,-0.2,0.02,0.09,0.31,7242,2019-03-25 16:54:54:268
2.64,5.35,9.69,2.16,5.26,-0.2,0.02,0.09,0.31,7247,2019-03-25 16:54:54:273
2.64,5.35,9.69,2.16,5.26,-0.2,0.02,0.09,0.31,7252,2019-03-25 16:54:54:278
1.44,4.24,9.26,0.8,3.63,-0.51,0.01,0.04,0.1,7257,2019-03-25 16:54:54:283
1.44,4.24,9.26,0.8,3.63,-0.51,0.01,0.04,0.1,7262,2019-03-25 16:54:54:288
1.44,4.24,9.26,0.8,3.63,-0.51,0.01,0.04,0.1,7267,2019-03-25 16:54:54:293
1.44,4.24,9.26,0.8,3.63,-0.51,0.01,0.04,0.1,7272,2019-03-25 16:54:54:298
2.62,2.23,8.66,1.75,1.32,-1.1,-0.01,0.0,-0.07,7277,2019-03-25 16:54:54:303
2.62,2.23,8.66,1.75,1.32,-1.1,-0.01,0.0,-0.07,7282,2019-03-25 16:54:54:308
2.62,2.23,8.66,1.75,1.32,-1.1,-0.01,0.0,-0.07,7287,2019-03-25 16:54:54:313
2.0,1.42,9.11,0.9,0.34,-0.32,0.0,-0.02,-0.26,7292,2019-03-25 16:54:54:318
2.0,1.42,9.11,0.9,0.34,-0.32,0.0,-0.02,-0.26,7297,2019-03-25 16:54:54:323
2.0,1.42,9.11,0.9,0.34,-0.32,0.0,-0.02,-0.26,7302,2019-03-25 16:54:54:328
2.0,1.42,9.11,0.9,0.34,-0.32,0.0,-0.02,-0.26,7307,2019-03-25 16:54:54:333
2.0,1.42,9.11,0.9,0.34,-0.32,0.0,-0.02,-0.26,7312,2019-03-25 16:54:54:338
1.54,0.77,9.24,0.33,-0.57,-0.14,0.02,-0.02,-0.37,7317,2019-03-25 16:54:54:343
1.54,0.77,9.24,0.33,-0.57,-0.14,0.02,-0.02,-0.37,7322,2019-03-25 16:54:54:348
1.54,0.77,9.24,0.33,-0.57,-0.14,0.02,-0.02,-0.37,7327,2019-03-25 16:54:54:353
1.54,0.77,9.24,0.33,-0.57,-0.14,0.02,-0.02,-0.37,7333,2019-03-25 16:54:54:359
1.54,0.77,9.24,0.33,-0.57,-0.14,0.02,-0.02,-0.37,7337,2019-03-25 16:54:54:363
1.39,0.31,9.06,-0.02,-1.32,-0.36,-0.05,-0.01,-0.4,7342,2019-03-25 16:54:54:368
1.39,0.31,9.06,-0.02,-1.32,-0.36,-0.05,-0.01,-0.4,7348,2019-03-25 16:54:54:374
1.55,-0.52,7.14,-0.02,-1.32,-0.36,-0.04,-0.02,-0.41,7352,2019-03-25 16:54:54:378
1.55,-0.52,7.14,-2.03,-1.5,5.12,-0.04,-0.02,-0.41,7358,2019-03-25 16:54:54:384
1.55,-0.52,7.14,-2.03,-1.5,5.12,-0.04,-0.02,-0.41,7363,2019-03-25 16:54:54:389
1.55,-0.52,7.14,-2.03,-1.5,5.12,-0.04,-0.02,-0.41,7367,2019-03-25 16:54:54:393
1.55,-0.52,7.14,-2.03,-1.5,5.12,-0.04,-0.02,-0.41,7372,2019-03-25 16:54:54:398
0.45,0.34,12.75,-1.01,-1.66,3.08,-0.12,-0.05,-0.34,7377,2019-03-25 16:54:54:403
0.45,0.34,12.75,-1.01,-1.66,3.08,-0.12,-0.05,-0.34,7382,2019-03-25 16:54:54:408
0.45,0.34,12.75,-1.01,-1.66,3.08,-0.12,-0.05,-0.34,7387,2019-03-25 16:54:54:413
0.45,0.34,12.75,-1.01,-1.66,3.08,-0.12,-0.05,-0.34,7392,2019-03-25 16:54:54:418
0.45,0.34,12.75,-1.01,-1.66,3.08,-0.12,-0.05,-0.34,7398,2019-03-25 16:54:54:424
0.02,-0.07,8.99,-1.53,-1.93,-0.7,-0.02,0.0,-0.28,7403,2019-03-25 16:54:54:429
0.02,-0.07,8.99,-1.53,-1.93,-0.7,-0.02,0.0,-0.28,7407,2019-03-25 16:54:54:433
0.02,-0.07,8.99,-1.53,-1.93,-0.7,-0.02,0.0,-0.28,7412,2019-03-25 16:54:54:438
0.66,-1.13,9.31,-0.8,-2.51,-0.26,0.06,-0.03,-0.22,7417,2019-03-25 16:54:54:443
0.66,-1.13,9.31,-0.8,-2.51,-0.26,0.06,-0.03,-0.22,7422,2019-03-25 16:54:54:448
0.66,-1.13,9.31,-0.8,-2.51,-0.26,0.06,-0.03,-0.22,7427,2019-03-25 16:54:54:453
0.66,-1.13,9.31,-0.8,-2.51,-0.26,0.06,-0.03,-0.22,7432,2019-03-25 16:54:54:458
0.66,-1.13,9.31,-0.8,-2.51,-0.26,0.06,-0.03,-0.22,7437,2019-03-25 16:54:54:463
-0.01,-1.44,10.59,-1.23,-2.22,0.99,-0.06,-0.02,-0.13,7442,2019-03-25 16:54:54:468
-0.01,-1.44,10.59,-1.23,-2.22,0.99,-0.06,-0.02,-0.13,7447,2019-03-25 16:54:54:473
-0.01,-1.44,10.59,-1.23,-2.22,0.99,-0.06,-0.02,-0.13,7452,2019-03-25 16:54:54:478
0.69,-0.29,9.32,-0.42,-0.55,-0.2,-0.03,0.0,-0.09,7457,2019-03-25 16:54:54:483
0.69,-0.29,9.32,-0.42,-0.55,-0.2,-0.03,0.0,-0.09,7462,2019-03-25 16:54:54:488
0.69,-0.29,9.32,-0.42,-0.55,-0.2,-0.03,0.0,-0.09,7467,2019-03-25 16:54:54:493
0.69,-0.29,9.32,-0.42,-0.55,-0.2,-0.03,0.0,-0.09,7472,2019-03-25 16:54:54:498
0.69,-0.29,9.32,-0.42,-0.55,-0.2,-0.03,0.0,-0.09,7477,2019-03-25 16:54:54:503
0.27,-0.93,10.22,-0.53,-0.78,0.59,0.0,-0.01,-0.03,7482,2019-03-25 16:54:54:508
0.27,-0.93,10.22,-0.53,-0.78,0.59,0.0,-0.01,-0.03,7487,2019-03-25 16:54:54:513
0.27,-0.93,10.22,-0.53,-0.78,0.59,0.0,-0.01,-0.03,7492,2019-03-25 16:54:54:518
0.27,-0.93,10.22,-0.53,-0.78,0.59,0.0,-0.01,-0.03,7497,2019-03-25 16:54:54:523
0.01,-1.47,9.78,-0.59,-1.03,-0.01,0.0,0.0,0.02,7502,2019-03-25 16:54:54:528
0.01,-1.47,9.78,-0.59,-1.03,-0.01,0.01,0.02,0.08,7507,2019-03-25 16:54:54:533
0.01,-1.47,9.78,-0.59,-1.03,-0.01,0.01,0.02,0.08,7513,2019-03-25 16:54:54:539
0.01,-1.47,9.78,-0.59,-1.03,-0.01,0.01,0.02,0.08,7517,2019-03-25 16:54:54:543
1.0,-0.57,10.92,0.58,0.08,0.9,0.01,0.02,0.08,7524,2019-03-25 16:54:54:550
1.0,-0.57,10.92,0.58,0.08,0.9,0.01,0.02,0.08,7527,2019-03-25 16:54:54:553
0.63,0.39,11.47,0.24,1.05,1.33,-0.01,0.0,0.11,7534,2019-03-25 16:54:54:560
0.63,0.39,11.47,0.24,1.05,1.33,-0.01,0.0,0.11,7537,2019-03-25 16:54:54:563
0.63,0.39,11.47,0.24,1.05,1.33,-0.01,0.0,0.11,7542,2019-03-25 16:54:54:568
0.63,0.39,11.47,0.24,1.05,1.33,-0.01,0.0,0.11,7547,2019-03-25 16:54:54:573
0.2,-0.71,8.52,0.24,1.05,1.33,0.04,0.0,0.07,7552,2019-03-25 16:54:54:578
0.2,-0.71,8.52,-0.03,-0.07,-1.56,0.04,0.0,0.07,7557,2019-03-25 16:54:54:583
0.2,-0.71,8.52,-0.03,-0.07,-1.56,0.04,0.0,0.07,7563,2019-03-25 16:54:54:589
1.99,1.66,9.65,1.57,2.26,0.09,-0.07,-0.01,0.06,7568,2019-03-25 16:54:54:594
1.99,1.66,9.65,1.57,2.26,0.09,-0.07,-0.01,0.06,7575,2019-03-25 16:54:54:601
1.99,1.66,9.65,1.57,2.26,0.09,-0.07,-0.01,0.06,7580,2019-03-25 16:54:54:606
1.99,1.66,9.65,1.57,2.26,0.09,-0.05,-0.05,0.03,7582,2019-03-25 16:54:54:608
1.99,1.66,9.65,1.57,2.26,0.09,-0.05,-0.05,0.03,7587,2019-03-25 16:54:54:613
1.99,1.66,9.65,1.57,2.26,0.09,-0.05,-0.05,0.03,7592,2019-03-25 16:54:54:618
1.99,1.66,9.65,1.57,2.26,0.09,-0.05,-0.05,0.03,7597,2019-03-25 16:54:54:623
1.43,1.11,7.19,0.94,1.51,-2.42,-0.04,-0.05,-0.01,7602,2019-03-25 16:54:54:628
1.43,1.11,7.19,0.94,1.51,-2.42,-0.04,-0.05,-0.01,7607,2019-03-25 16:54:54:633
1.43,1.11,7.19,0.94,1.51,-2.42,-0.04,-0.05,-0.01,7612,2019-03-25 16:54:54:638
1.43,1.11,7.19,0.94,1.51,-2.42,-0.04,-0.05,-0.01,7617,2019-03-25 16:54:54:643
0.97,-0.32,9.41,0.42,0.02,-0.22,-0.1,-0.03,-0.03,7624,2019-03-25 16:54:54:650
0.97,-0.32,9.41,0.42,0.02,-0.22,-0.1,-0.03,-0.03,7627,2019-03-25 16:54:54:653
0.97,-0.32,9.41,2.11,2.02,0.24,0.0,-0.01,-0.06,7632,2019-03-25 16:54:54:658
0.97,-0.32,9.41,2.11,2.02,0.24,0.0,-0.01,-0.06,7637,2019-03-25 16:54:54:663
0.97,-0.32,9.41,2.11,2.02,0.24,0.0,-0.01,-0.06,7642,2019-03-25 16:54:54:668
0.97,-0.32,9.41,2.11,2.02,0.24,0.0,-0.01,-0.06,7647,2019-03-25 16:54:54:673
0.97,-0.32,9.41,2.11,2.02,0.24,0.0,-0.01,-0.06,7653,2019-03-25 16:54:54:679
1.23,1.4,8.12,0.36,1.38,-1.8,0.07,0.01,-0.1,7657,2019-03-25 16:54:54:683
1.23,1.4,8.12,0.36,1.38,-1.8,0.07,0.01,-0.1,7662,2019-03-25 16:54:54:688
1.23,1.4,8.12,0.36,1.38,-1.8,0.07,0.01,-0.1,7668,2019-03-25 16:54:54:694
1.23,1.4,8.12,0.36,1.38,-1.8,0.07,0.01,-0.1,7672,2019-03-25 16:54:54:698
1.23,1.4,8.12,0.36,1.38,-1.8,0.07,0.01,-0.1,7678,2019-03-25 16:54:54:704
0.34,1.8,11.8,-0.49,1.5,1.82,0.0,0.0,-0.09,7682,2019-03-25 16:54:54:708
0.34,1.8,11.8,-0.49,1.5,1.82,0.0,0.0,-0.09,7687,2019-03-25 16:54:54:713
0.34,1.8,11.8,-0.49,1.5,1.82,0.0,0.0,-0.09,7692,2019-03-25 16:54:54:718
0.34,1.8,11.8,-0.49,1.5,1.82,0.0,0.0,-0.09,7697,2019-03-25 16:54:54:723
-0.13,0.88,10.61,-0.97,0.35,0.56,0.0,0.0,-0.02,7703,2019-03-25 16:54:54:729
-0.13,0.88,10.61,-0.97,0.35,0.56,0.0,0.0,-0.02,7707,2019-03-25 16:54:54:733
-1.01,-0.75,9.17,-0.97,0.35,0.56,0.0,-0.01,0.04,7712,2019-03-25 16:54:54:738
-1.01,-0.75,9.17,-0.97,0.35,0.56,0.0,-0.01,0.04,7717,2019-03-25 16:54:54:743
1.03,0.29,9.24,0.32,-0.33,-0.44,-0.01,0.02,0.06,7722,2019-03-25 16:54:54:748
1.03,0.29,9.24,0.32,-0.33,-0.44,-0.01,0.02,0.06,7734,2019-03-25 16:54:54:760
1.03,0.29,9.24,0.32,-0.33,-0.44,-0.01,0.02,0.06,7735,2019-03-25 16:54:54:761
1.03,0.29,9.24,0.32,-0.33,-0.44,-0.01,0.02,0.06,7737,2019-03-25 16:54:54:763
1.03,0.29,9.24,0.32,-0.33,-0.44,-0.01,0.02,0.06,7743,2019-03-25 16:54:54:769
1.03,0.29,9.24,0.32,-0.33,-0.44,-0.01,0.02,0.06,7747,2019-03-25 16:54:54:773
1.32,1.18,11.95,0.45,0.45,1.98,0.1,0.05,0.04,7751,2019-03-25 16:54:54:777
1.32,1.18,11.95,0.45,0.45,1.98,0.1,0.05,0.04,7757,2019-03-25 16:54:54:783
1.32,1.18,11.95,0.45,0.45,1.98,0.1,0.05,0.04,7762,2019-03-25 16:54:54:788
1.32,1.18,11.95,0.45,0.45,1.98,0.1,0.05,0.04,7767,2019-03-25 16:54:54:793
1.92,0.62,8.06,1.04,-0.12,-1.84,0.13,0.01,0.03,7778,2019-03-25 16:54:54:804
1.92,0.62,8.06,1.04,-0.12,-1.84,0.13,0.01,0.03,7779,2019-03-25 16:54:54:805
1.92,0.62,8.06,1.04,-0.12,-1.84,0.13,0.01,0.03,7782,2019-03-25 16:54:54:808
1.92,0.62,8.06,1.04,-0.12,-1.84,0.13,0.01,0.03,7787,2019-03-25 16:54:54:813
-0.43,2.1,9.28,-1.22,1.22,-0.75,0.06,-0.03,0.0,7794,2019-03-25 16:54:54:820
-0.43,2.1,9.28,-1.22,1.22,-0.75,0.06,-0.03,0.0,7797,2019-03-25 16:54:54:823
-0.43,2.1,9.28,-1.22,1.22,-0.75,0.06,-0.03,0.0,7802,2019-03-25 16:54:54:828
-0.43,2.1,9.28,-1.22,1.22,-0.75,0.06,-0.03,0.0,7807,2019-03-25 16:54:54:833
0.51,2.7,10.44,-0.22,1.57,0.47,0.04,-0.01,-0.03,7811,2019-03-25 16:54:54:837
0.51,2.7,10.44,-0.22,1.57,0.47,0.04,-0.01,-0.03,7817,2019-03-25 16:54:54:843
0.51,2.7,10.44,-0.22,1.57,0.47,0.04,-0.01,-0.03,7823,2019-03-25 16:54:54:849
0.51,2.7,10.44,-0.22,1.57,0.47,0.04,-0.01,-0.03,7826,2019-03-25 16:54:54:852
0.51,2.7,10.44,-0.22,1.57,0.47,0.04,-0.01,-0.03,7831,2019-03-25 16:54:54:857
0.51,2.7,10.44,-0.22,1.57,0.47,0.04,-0.01,-0.03,7837,2019-03-25 16:54:54:863
1.03,3.14,9.62,0.38,1.73,-0.14,-0.01,-0.01,-0.04,7842,2019-03-25 16:54:54:868
1.03,3.14,9.62,0.38,1.73,-0.14,-0.01,-0.01,-0.04,7847,2019-03-25 16:54:54:873
1.03,3.14,9.62,0.38,1.73,-0.14,-0.01,-0.01,-0.03,7852,2019-03-25 16:54:54:878
1.03,3.14,9.62,0.38,1.73,-0.14,-0.01,-0.01,-0.03,7857,2019-03-25 16:54:54:883
1.03,3.14,9.62,0.38,1.73,-0.14,-0.01,-0.01,-0.03,7863,2019-03-25 16:54:54:889
1.03,3.14,9.62,0.38,1.73,-0.14,-0.01,-0.01,-0.03,7867,2019-03-25 16:54:54:893
1.03,3.14,9.62,0.38,1.73,-0.14,-0.01,-0.01,-0.03,7873,2019-03-25 16:54:54:899
1.03,3.14,9.62,0.38,1.73,-0.14,-0.01,-0.01,-0.03,7877,2019-03-25 16:54:54:903
1.02,1.81,8.27,0.42,0.36,-1.1,-0.03,0.0,-0.02,7882,2019-03-25 16:54:54:908
1.02,1.81,8.27,0.42,0.36,-1.1,-0.03,0.0,-0.02,7887,2019-03-25 16:54:54:913
1.02,1.81,8.27,0.42,0.36,-1.1,-0.01,0.04,-0.04,7892,2019-03-25 16:54:54:918
1.02,1.81,8.27,0.42,0.36,-1.1,-0.01,0.04,-0.04,7898,2019-03-25 16:54:54:924
1.02,1.81,8.27,0.42,0.36,-1.1,-0.01,0.04,-0.04,7902,2019-03-25 16:54:54:928
1.02,1.81,8.27,0.42,0.36,-1.1,-0.01,0.04,-0.04,7907,2019-03-25 16:54:54:933
1.02,1.81,8.27,0.42,0.36,-1.1,-0.01,0.04,-0.04,7912,2019-03-25 16:54:54:938
1.02,1.81,8.27,0.42,0.36,-1.1,-0.01,0.04,-0.04,7922,2019-03-25 16:54:54:948
1.02,1.81,8.27,0.42,0.36,-1.1,-0.01,0.04,-0.04,7923,2019-03-25 16:54:54:949
1.02,1.81,8.27,0.42,0.36,-1.1,-0.01,0.04,-0.04,7927,2019-03-25 16:54:54:953
1.02,1.81,8.27,0.42,0.36,-1.1,-0.01,0.04,-0.04,7932,2019-03-25 16:54:54:958
0.18,-1.01,6.17,-0.57,-2.48,-3.16,-0.01,0.02,-0.06,7943,2019-03-25 16:54:54:969
0.18,-1.01,6.17,-0.57,-2.48,-3.16,-0.01,0.02,-0.06,7946,2019-03-25 16:54:54:972
